trials.thisRepN,trials.thisTrialN,trials.thisN,trials.thisIndex,trials_2.thisRepN,trials_2.thisTrialN,trials_2.thisN,trials_2.thisIndex,Introduction.started,Introduction.stopped,EndTaskKey.keys,EndTaskKey.rt,EndTaskKey.started,EndTaskKey.stopped,instructions.started,instructions.stopped,KyeNext.keys,KyeNext.rt,KyeNext.started,KyeNext.stopped,introduction2.started,introduction2.stopped,SpaceBar.keys,SpaceBar.rt,SpaceBar.started,SpaceBar.stopped,text_start.started,text_start.stopped,srart_key.keys,srart_key.rt,srart_key.started,srart_key.stopped,key_resp2.keys,key_resp2.rt,key_resp2.started,key_resp2.stopped,image.started,image.stopped,text_2.started,text_2.stopped,mouse.x,mouse.y,mouse.leftButton,mouse.midButton,mouse.rightButton,mouse.time,mouse.clicked_name,mouse.started,mouse.stopped,A.started,A.stopped,A.numClicks,A.timesOn,A.timesOff,B.started,B.stopped,B.numClicks,B.timesOn,B.timesOff,text_3.started,text_3.stopped,text.started,text.stopped,key_resp_2.keys,key_resp_2.rt,key_resp_2.started,key_resp_2.stopped,participant,session,use_eyetracking,date,expName,psychopyVersion,frameRate,
,,,,,,,,25.942848000000026,None,space,7.663607099999979,25.942848000000026,None,,,,,,,,,,,,,,,,,,,,,,,,,,,,,,,,,,,,,,,,,,,,,,,,,,,,,,use3,001,True,2022_May_04_1316,EyeTrackingStudy,2021.2.1,60.006900793587484,
,,,,,,,,,,,,,,33.6361478,None,space,5.03421800000001,33.6361478,None,,,,,,,,,,,,,,,,,,,,,,,,,,,,,,,,,,,,,,,,,,,,,,,,use3,001,True,2022_May_04_1316,EyeTrackingStudy,2021.2.1,60.006900793587484,
,,,,,,,,,,,,,,,,,,,,38.68600329999998,None,space,10.52842290000001,38.68600329999998,None,,,,,,,,,,,,,,,,,,,,,,,,,,,,,,,,,,,,,,,,,,use3,001,True,2022_May_04_1316,EyeTrackingStudy,2021.2.1,60.006900793587484,
,,,,,,,,,,,,,,,,,,,,,,,,,,49.2355943,None,space,4.498927100000003,49.2355943,None,,,,,,,,,,,,,,,,,,,,,,,,,,,,,,,,,,,,use3,001,True,2022_May_04_1316,EyeTrackingStudy,2021.2.1,60.006900793587484,
0,0,0,0,0,0,0,0,,,,,,,,,,,,,,,,,,,,,,,,,space,35.36625780000003,55.95210309999999,None,55.95210309999999,None,55.95210309999999,None,,,,,,,,,,,,,,,,,,,,,,,,,,,,use3,001,True,2022_May_04_1316,EyeTrackingStudy,2021.2.1,60.006900793587484,
0,0,0,0,1,0,1,0,,,,,,,,,,,,,,,,,,,,,,,,,space,12.565832600000022,91.40053990000001,None,91.40053990000001,None,91.40053990000001,None,,,,,,,,,,,,,,,,,,,,,,,,,,,,use3,001,True,2022_May_04_1316,EyeTrackingStudy,2021.2.1,60.006900793587484,
0,0,0,0,,,,,,,,,,,,,,,,,,,,,,,,,,,,,,,,,,,,,-0.06296296296296296,0.09814814814814815,1,0,0,2.9157943999999816,A,0.014767629999937526,None,104.01679990000002,None,1,[2.8991476999999577],[2.9156174999999394],104.01679990000002,None,0,,,104.01679990000002,None,,,,,,,use3,001,True,2022_May_04_1316,EyeTrackingStudy,2021.2.1,60.006900793587484,
1,0,1,0,0,0,0,0,,,,,,,,,,,,,,,,,,,,,,,,,space,53.238353200000006,107.00004569999999,None,107.00004569999999,None,107.00004569999999,None,,,,,,,,,,,,,,,,,,,,,,,,,,,,use3,001,True,2022_May_04_1316,EyeTrackingStudy,2021.2.1,60.006900793587484,
1,0,1,0,1,0,1,0,,,,,,,,,,,,,,,,,,,,,,,,,space,8.098871400000007,160.33149519999995,None,160.33149519999995,None,160.33149519999995,None,,,,,,,,,,,,,,,,,,,,,,,,,,,,use3,001,True,2022_May_04_1316,EyeTrackingStudy,2021.2.1,60.006900793587484,
1,0,1,0,,,,,,,,,,,,,,,,,,,,,,,,,,,,,,,,,,,,,-0.14351851851851852,-0.08888888888888889,1,0,0,3.3543131999999787,B,0.002516749999927015,None,168.53121839999994,None,1,[2.8991476999999577],[2.9156174999999394],168.53121839999994,None,1,[3.354131700000039],[3.3541351999999733],168.53121839999994,None,,,,,,,use3,001,True,2022_May_04_1316,EyeTrackingStudy,2021.2.1,60.006900793587484,
2,0,2,0,0,0,0,0,,,,,,,,,,,,,,,,,,,,,,,,,space,49.16194829999995,171.96443239999996,None,171.96443239999996,None,171.96443239999996,None,,,,,,,,,,,,,,,,,,,,,,,,,,,,use3,001,True,2022_May_04_1316,EyeTrackingStudy,2021.2.1,60.006900793587484,
2,0,2,0,1,0,1,0,,,,,,,,,,,,,,,,,,,,,,,,,space,40.12096199999996,221.22940659999995,None,221.22940659999995,None,221.22940659999995,None,,,,,,,,,,,,,,,,,,,,,,,,,,,,use3,001,True,2022_May_04_1316,EyeTrackingStudy,2021.2.1,60.006900793587484,
2,0,2,0,,,,,,,,,,,,,,,,,,,,,,,,,,,,,,,,,,,,,-0.058333333333333334,-0.08703703703703704,1,0,0,4.177001799999971,B,0.00879344999998466,None,261.4447067,None,1,[2.8991476999999577],[2.9156174999999394],261.4447067,None,2,"[3.354131700000039, 4.176778800000079]","[3.3541351999999733, 4.176782700000103]",261.4447067,None,,,,,,,use3,001,True,2022_May_04_1316,EyeTrackingStudy,2021.2.1,60.006900793587484,
3,0,3,0,0,0,0,0,,,,,,,,,,,,,,,,,,,,,,,,,space,84.54385070000001,265.69453250000004,None,265.69453250000004,None,265.69453250000004,None,,,,,,,,,,,,,,,,,,,,,,,,,,,,use3,001,True,2022_May_04_1316,EyeTrackingStudy,2021.2.1,60.006900793587484,
3,0,3,0,1,0,1,0,,,,,,,,,,,,,,,,,,,,,,,,,space,25.04134350000004,350.3250057,None,350.3250057,None,350.3250057,None,,,,,,,,,,,,,,,,,,,,,,,,,,,,use3,001,True,2022_May_04_1316,EyeTrackingStudy,2021.2.1,60.006900793587484,
3,0,3,0,,,,,,,,,,,,,,,,,,,,,,,,,,,,,,,,,,,,,-0.17037037037037037,-0.08611111111111111,1,0,0,2.4423995999999306,B,0.007518939999954455,None,375.4574947,None,1,[2.8991476999999577],[2.9156174999999394],375.4574947,None,3,"[3.354131700000039, 4.176778800000079, 2.44223199999999]","[3.3541351999999733, 4.176782700000103, 2.442237699999964]",375.4574947,None,,,,,,,use3,001,True,2022_May_04_1316,EyeTrackingStudy,2021.2.1,60.006900793587484,
4,0,4,0,0,0,0,0,,,,,,,,,,,,,,,,,,,,,,,,,space,45.464951999999926,377.95741669999995,None,377.95741669999995,None,377.95741669999995,None,,,,,,,,,,,,,,,,,,,,,,,,,,,,use3,001,True,2022_May_04_1316,EyeTrackingStudy,2021.2.1,60.006900793587484,
4,0,4,0,1,0,1,0,,,,,,,,,,,,,,,,,,,,,,,,,space,8.46109530000001,423.48925569999994,None,423.48925569999994,None,423.48925569999994,None,,,,,,,,,,,,,,,,,,,,,,,,,,,,use3,001,True,2022_May_04_1316,EyeTrackingStudy,2021.2.1,60.006900793587484,
4,0,4,0,,,,,,,,,,,,,,,,,,,,,,,,,,,,,,,,,,,,,-0.1712962962962963,-0.08055555555555556,1,0,0,2.2428555000000188,B,0.00828422999995837,None,432.0222764,None,1,[2.8991476999999577],[2.9156174999999394],432.0222764,None,4,"[3.354131700000039, 4.176778800000079, 2.44223199999999, 2.2260033999999678]","[3.3541351999999733, 4.176782700000103, 2.442237699999964, 2.2427401999999574]",432.0222764,None,,,,,,,use3,001,True,2022_May_04_1316,EyeTrackingStudy,2021.2.1,60.006900793587484,
5,0,5,0,0,0,0,0,,,,,,,,,,,,,,,,,,,,,,,,,space,61.96415189999993,434.3221751,None,434.3221751,None,434.3221751,None,,,,,,,,,,,,,,,,,,,,,,,,,,,,use3,001,True,2022_May_04_1316,EyeTrackingStudy,2021.2.1,60.006900793587484,
5,0,5,0,1,0,1,0,,,,,,,,,,,,,,,,,,,,,,,,,space,7.876223299999992,496.37009820000003,None,496.37009820000003,None,496.37009820000003,None,,,,,,,,,,,,,,,,,,,,,,,,,,,,use3,001,True,2022_May_04_1316,EyeTrackingStudy,2021.2.1,60.006900793587484,
5,0,5,0,,,,,,,,,,,,,,,,,,,,,,,,,,,,,,,,,,,,,-0.14074074074074075,0.07407407407407407,1,0,0,12.864484500000003,A,0.013604429999986678,None,504.30317419999994,None,2,"[2.8991476999999577, 12.864287600000011]","[2.9156174999999394, 12.86429129999999]",504.30317419999994,None,4,"[3.354131700000039, 4.176778800000079, 2.44223199999999, 2.2260033999999678]","[3.3541351999999733, 4.176782700000103, 2.442237699999964, 2.2427401999999574]",504.30317419999994,None,,,,,,,use3,001,True,2022_May_04_1316,EyeTrackingStudy,2021.2.1,60.006900793587484,
6,0,6,0,0,0,0,0,,,,,,,,,,,,,,,,,,,,,,,,,space,36.67428140000004,517.2360711,None,517.2360711,None,517.2360711,None,,,,,,,,,,,,,,,,,,,,,,,,,,,,use3,001,True,2022_May_04_1316,EyeTrackingStudy,2021.2.1,60.006900793587484,
6,0,6,0,1,0,1,0,,,,,,,,,,,,,,,,,,,,,,,,,space,94.06884739999998,554.00149,None,554.00149,None,554.00149,None,,,,,,,,,,,,,,,,,,,,,,,,,,,,use3,001,True,2022_May_04_1316,EyeTrackingStudy,2021.2.1,60.006900793587484,
6,0,6,0,,,,,,,,,,,,,,,,,,,,,,,,,,,,,,,,,,,,,-0.14074074074074075,0.075,1,0,0,2.116854699999976,A,0.01559044000009635,None,648.1483588000001,None,3,"[2.8991476999999577, 12.864287600000011, 2.1001470000001063]","[2.9156174999999394, 12.86429129999999, 2.1166334000001825]",648.1483588000001,None,4,"[3.354131700000039, 4.176778800000079, 2.44223199999999, 2.2260033999999678]","[3.3541351999999733, 4.176782700000103, 2.442237699999964, 2.2427401999999574]",648.1483588000001,None,,,,,,,use3,001,True,2022_May_04_1316,EyeTrackingStudy,2021.2.1,60.006900793587484,
7,0,7,0,0,0,0,0,,,,,,,,,,,,,,,,,,,,,,,,,space,37.114687600000025,650.3316218,None,650.3316218,None,650.3316218,None,,,,,,,,,,,,,,,,,,,,,,,,,,,,use3,001,True,2022_May_04_1316,EyeTrackingStudy,2021.2.1,60.006900793587484,
7,0,7,0,1,0,1,0,,,,,,,,,,,,,,,,,,,,,,,,,space,4.643927000000076,687.5303707,None,687.5303707,None,687.5303707,None,,,,,,,,,,,,,,,,,,,,,,,,,,,,use3,001,True,2022_May_04_1316,EyeTrackingStudy,2021.2.1,60.006900793587484,
7,0,7,0,,,,,,,,,,,,,,,,,,,,,,,,,,,,,,,,,,,,,-0.11388888888888889,-0.08055555555555556,1,0,0,2.2147342000000663,B,0.01326743999993596,None,692.2468925000001,None,3,"[2.8991476999999577, 12.864287600000011, 2.1001470000001063]","[2.9156174999999394, 12.86429129999999, 2.1166334000001825]",692.2468925000001,None,5,"[3.354131700000039, 4.176778800000079, 2.44223199999999, 2.2260033999999678, 2.214587100000017]","[3.3541351999999733, 4.176782700000103, 2.442237699999964, 2.2427401999999574, 2.214591100000007]",692.2468925000001,None,,,,,,,use3,001,True,2022_May_04_1316,EyeTrackingStudy,2021.2.1,60.006900793587484,
8,0,8,0,0,0,0,0,,,,,,,,,,,,,,,,,,,,,,,,,,,,,,,,,-0.11388888888888889,-0.08055555555555556,1,0,0,0.00023799999985385512,B,0.008239210000056119,None,694.46319721,None,3,"[2.8991476999999577, 12.864287600000011, 2.1001470000001063]","[2.9156174999999394, 12.86429129999999, 2.1166334000001825]",694.46319721,None,5,"[3.354131700000039, 4.176778800000079, 2.44223199999999, 2.2260033999999678, 2.214587100000017]","[3.3541351999999733, 4.176782700000103, 2.442237699999964, 2.2427401999999574, 9.629999999560823e-05]",694.46319721,None,,,,,,,use3,001,True,2022_May_04_1316,EyeTrackingStudy,2021.2.1,60.006900793587484,
9,0,9,0,0,0,0,0,,,,,,,,,,,,,,,,,,,,,,,,,,,,,,,,,-0.11388888888888889,-0.08055555555555556,1,0,0,0.00021289999995133257,B,0.002584409999599302,None,694.46319721,None,3,"[2.8991476999999577, 12.864287600000011, 2.1001470000001063]","[2.9156174999999394, 12.86429129999999, 2.1166334000001825]",694.46319721,None,5,"[3.354131700000039, 4.176778800000079, 2.44223199999999, 2.2260033999999678, 2.214587100000017]","[3.3541351999999733, 4.176782700000103, 2.442237699999964, 2.2427401999999574, 9.9800000043615e-05]",694.46319721,None,,,,,,,use3,001,True,2022_May_04_1316,EyeTrackingStudy,2021.2.1,60.006900793587484,
10,0,10,0,0,0,0,0,,,,,,,,,,,,,,,,,,,,,,,,,,,,,,,,,-0.11388888888888889,-0.08055555555555556,1,0,0,0.00019959999985985633,B,0.014162219999889203,None,694.47958892,None,3,"[2.8991476999999577, 12.864287600000011, 2.1001470000001063]","[2.9156174999999394, 12.86429129999999, 2.1166334000001825]",694.47958892,None,5,"[3.354131700000039, 4.176778800000079, 2.44223199999999, 2.2260033999999678, 2.214587100000017]","[3.3541351999999733, 4.176782700000103, 2.442237699999964, 2.2427401999999574, 9.030000001075678e-05]",694.47958892,None,,,,,,,use3,001,True,2022_May_04_1316,EyeTrackingStudy,2021.2.1,60.006900793587484,
11,0,11,0,0,0,0,0,,,,,,,,,,,,,,,,,,,,,,,,,,,,,,,,,-0.11388888888888889,-0.08055555555555556,1,0,0,0.00027829999999084976,B,0.00916171999983817,None,694.47958892,None,3,"[2.8991476999999577, 12.864287600000011, 2.1001470000001063]","[2.9156174999999394, 12.86429129999999, 2.1166334000001825]",694.47958892,None,5,"[3.354131700000039, 4.176778800000079, 2.44223199999999, 2.2260033999999678, 2.214587100000017]","[3.3541351999999733, 4.176782700000103, 2.442237699999964, 2.2427401999999574, 0.00012190000006739865]",694.47958892,None,,,,,,,use3,001,True,2022_May_04_1316,EyeTrackingStudy,2021.2.1,60.006900793587484,
12,0,12,0,0,0,0,0,,,,,,,,,,,,,,,,,,,,,,,,,,,,,,,,,-0.11388888888888889,-0.08055555555555556,1,0,0,0.00021339999989322678,B,0.0038870199998655153,None,694.47958892,None,3,"[2.8991476999999577, 12.864287600000011, 2.1001470000001063]","[2.9156174999999394, 12.86429129999999, 2.1166334000001825]",694.47958892,None,5,"[3.354131700000039, 4.176778800000079, 2.44223199999999, 2.2260033999999678, 2.214587100000017]","[3.3541351999999733, 4.176782700000103, 2.442237699999964, 2.2427401999999574, 0.00010219999990113138]",694.47958892,None,,,,,,,use3,001,True,2022_May_04_1316,EyeTrackingStudy,2021.2.1,60.006900793587484,
13,0,13,0,0,0,0,0,,,,,,,,,,,,,,,,,,,,,,,,,,,,,,,,,-0.11388888888888889,-0.08055555555555556,1,0,0,0.00022139999987302872,B,0.014144929999929445,None,694.49598063,None,3,"[2.8991476999999577, 12.864287600000011, 2.1001470000001063]","[2.9156174999999394, 12.86429129999999, 2.1166334000001825]",694.49598063,None,5,"[3.354131700000039, 4.176778800000079, 2.44223199999999, 2.2260033999999678, 2.214587100000017]","[3.3541351999999733, 4.176782700000103, 2.442237699999964, 2.2427401999999574, 9.4600000011269e-05]",694.49598063,None,,,,,,,use3,001,True,2022_May_04_1316,EyeTrackingStudy,2021.2.1,60.006900793587484,
14,0,14,0,0,0,0,0,,,,,,,,,,,,,,,,,,,,,,,,,,,,,,,,,-0.11388888888888889,-0.08055555555555556,1,0,0,0.00028079999992769444,B,0.008617929999672924,None,694.49598063,None,3,"[2.8991476999999577, 12.864287600000011, 2.1001470000001063]","[2.9156174999999394, 12.86429129999999, 2.1166334000001825]",694.49598063,None,5,"[3.354131700000039, 4.176778800000079, 2.44223199999999, 2.2260033999999678, 2.214587100000017]","[3.3541351999999733, 4.176782700000103, 2.442237699999964, 2.2427401999999574, 0.00012330000004112662]",694.49598063,None,,,,,,,use3,001,True,2022_May_04_1316,EyeTrackingStudy,2021.2.1,60.006900793587484,
15,0,15,0,0,0,0,0,,,,,,,,,,,,,,,,,,,,,,,,,,,,,,,,,-0.11388888888888889,-0.08055555555555556,1,0,0,0.00021330000004127214,B,0.0032872299998416565,None,694.49598063,None,3,"[2.8991476999999577, 12.864287600000011, 2.1001470000001063]","[2.9156174999999394, 12.86429129999999, 2.1166334000001825]",694.49598063,None,5,"[3.354131700000039, 4.176778800000079, 2.44223199999999, 2.2260033999999678, 2.214587100000017]","[3.3541351999999733, 4.176782700000103, 2.442237699999964, 2.2427401999999574, 0.0001007999999274034]",694.49598063,None,,,,,,,use3,001,True,2022_May_04_1316,EyeTrackingStudy,2021.2.1,60.006900793587484,
,,,,0,0,0,0,,,,,,,,,,,,,,,,,,,,,,,,,,,,,,,,,,,,,,,,,,,,,,,,,,,,,,694.596822,None,space,2.7854752000000644,694.596822,None,use3,001,True,2022_May_04_1316,EyeTrackingStudy,2021.2.1,60.006900793587484,
