trials.thisRepN,trials.thisTrialN,trials.thisN,trials.thisIndex,trials_2.thisRepN,trials_2.thisTrialN,trials_2.thisN,trials_2.thisIndex,Introduction.started,Introduction.stopped,EndTaskKey.keys,EndTaskKey.rt,EndTaskKey.started,EndTaskKey.stopped,instructions.started,instructions.stopped,KyeNext.keys,KyeNext.rt,KyeNext.started,KyeNext.stopped,image_3.started,image_3.stopped,key_resp_4.keys,key_resp_4.rt,key_resp_4.started,key_resp_4.stopped,image_4.started,image_4.stopped,key_resp_5.keys,key_resp_5.rt,key_resp_5.started,key_resp_5.stopped,C.started,C.stopped,C.numClicks,C.timesOn,C.timesOff,D.started,D.stopped,D.numClicks,D.timesOn,D.timesOff,mouse_2.x,mouse_2.y,mouse_2.leftButton,mouse_2.midButton,mouse_2.rightButton,mouse_2.clicked_name,mouse_2.started,mouse_2.stopped,text_5.started,text_5.stopped,text_4.started,text_4.stopped,key_resp_3.keys,key_resp_3.rt,key_resp_3.started,key_resp_3.stopped,key_resp2.keys,key_resp2.rt,key_resp2.started,key_resp2.stopped,image.started,image.stopped,text_2.started,text_2.stopped,mouse.x,mouse.y,mouse.leftButton,mouse.midButton,mouse.rightButton,mouse.time,mouse.clicked_name,mouse.started,mouse.stopped,A.started,A.stopped,A.numClicks,A.timesOn,A.timesOff,B.started,B.stopped,B.numClicks,B.timesOn,B.timesOff,text_3.started,text_3.stopped,text.started,text.stopped,key_resp_2.keys,key_resp_2.rt,key_resp_2.started,key_resp_2.stopped,participant,session,use_eyetracking,date,expName,psychopyVersion,frameRate,
,,,,,,,,25.565837699999975,None,space,2.616791700000249,25.565837699999975,None,,,,,,,,,,,,,,,,,,,,,,,,,,,,,,,,,,,,,,,,,,,,,,,,,,,,,,,,,,,,,,,,,,,,,,,,,,,,,,,,user17,001,True,2022_Jun_03_1449,EyeTrackingStudy,2021.2.1,None,
,,,,,,,,,,,,,,28.22080760000017,None,space,9.35379759999978,28.22080760000017,None,,,,,,,,,,,,,,,,,,,,,,,,,,,,,,,,,,,,,,,,,,,,,,,,,,,,,,,,,,,,,,,,,,,,,,,,,,user17,001,True,2022_Jun_03_1449,EyeTrackingStudy,2021.2.1,None,
,,,,,,,,,,,,,,,,,,,,37.620117500000106,None,space,6.394435600000179,37.620117500000106,None,,,,,,,,,,,,,,,,,,,,,,,,,,,,,,,,,,,,,,,,,,,,,,,,,,,,,,,,,,,,,,,,,,,,user17,001,True,2022_Jun_03_1449,EyeTrackingStudy,2021.2.1,None,
,,,,,,,,,,,,,,,,,,,,,,,,,,44.05624209999996,None,space,4.3823105999999825,44.05624209999996,None,,,,,,,,,,,,,,,,,,,,,,,,,,,,,,,,,,,,,,,,,,,,,,,,,,,,,,,,,,,,,,user17,001,True,2022_Jun_03_1449,EyeTrackingStudy,2021.2.1,None,
,,,,,,,,,,,,,,,,,,,,,,,,,,,,,,,,48.484418600000026,None,1,[2.2949439999997594],[2.2949476999997387],48.484418600000026,None,0,,,-0.1,0.10925925925925926,1,0,0,C,0.012579866667238093,None,,,,,,,,,,,,,,,,,,,,,,,,,,,,,,,,,,,,,,,,,,,,user17,001,True,2022_Jun_03_1449,EyeTrackingStudy,2021.2.1,None,
,,,,,,,,,,,,,,,,,,,,,,,,,,,,,,,,,,,,,,,,,,,,,,,,,,48.484418600000026,None,50.75918180000008,None,space,3.3273581999997077,50.75918180000008,None,,,,,,,,,,,,,,,,,,,,,,,,,,,,,,,,,,,,user17,001,True,2022_Jun_03_1449,EyeTrackingStudy,2021.2.1,None,
0,0,0,0,0,0,0,0,,,,,,,,,,,,,,,,,,,,,,,,,,,,,,,,,,,,,,,,,,,,,,,,,,,space,38.56565330000012,56.20895270000028,None,56.20895270000028,None,56.20895270000028,None,,,,,,,,,,,,,,,,,,,,,,,,,,,,user17,001,True,2022_Jun_03_1449,EyeTrackingStudy,2021.2.1,None,
0,0,0,0,1,0,1,0,,,,,,,,,,,,,,,,,,,,,,,,,,,,,,,,,,,,,,,,,,,,,,,,,,,space,22.751723200000015,94.87083280000024,None,94.87083280000024,None,94.87083280000024,None,,,,,,,,,,,,,,,,,,,,,,,,,,,,user17,001,True,2022_Jun_03_1449,EyeTrackingStudy,2021.2.1,None,
0,0,0,0,,,,,,,,,,,,,,,,,,,,,,,,,,,,,,,,,,,,,,,,,,,,,,,,,,,,,,,,,,,,,,,0.35,0.06759259259259259,1,0,0,3.9346473000000515,A,0.0021277333335092408,None,117.67439409999997,None,1,[3.9100499000001037],[3.9344415999999],117.67439409999997,None,0,,,117.67439409999997,None,,,,,,,user17,001,True,2022_Jun_03_1449,EyeTrackingStudy,2021.2.1,None,
1,0,1,0,0,0,0,0,,,,,,,,,,,,,,,,,,,,,,,,,,,,,,,,,,,,,,,,,,,,,,,,,,,space,44.0771265999997,121.66537659999995,None,121.66537659999995,None,121.66537659999995,None,,,,,,,,,,,,,,,,,,,,,,,,,,,,user17,001,True,2022_Jun_03_1449,EyeTrackingStudy,2021.2.1,None,
1,0,1,0,1,0,1,0,,,,,,,,,,,,,,,,,,,,,,,,,,,,,,,,,,,,,,,,,,,,,,,,,,,space,48.35110789999999,165.8313774000003,None,165.8313774000003,None,165.8313774000003,None,,,,,,,,,,,,,,,,,,,,,,,,,,,,user17,001,True,2022_Jun_03_1449,EyeTrackingStudy,2021.2.1,None,
1,0,1,0,,,,,,,,,,,,,,,,,,,,,,,,,,,,,,,,,,,,,,,,,,,,,,,,,,,,,,,,,,,,,,,0.13425925925925927,-0.0712962962962963,1,0,0,2.1743658999998843,B,0.0012044000000059896,None,214.25864009999987,None,1,[3.9100499000001037],[3.9344415999999],214.25864009999987,None,1,[2.1741860000001907],[2.1741895000000113],214.25864009999987,None,,,,,,,user17,001,True,2022_Jun_03_1449,EyeTrackingStudy,2021.2.1,None,
2,0,2,0,0,0,0,0,,,,,,,,,,,,,,,,,,,,,,,,,,,,,,,,,,,,,,,,,,,,,,,,,,,space,28.437428100000034,216.48100550000026,None,216.48100550000026,None,216.48100550000026,None,,,,,,,,,,,,,,,,,,,,,,,,,,,,user17,001,True,2022_Jun_03_1449,EyeTrackingStudy,2021.2.1,None,
2,0,2,0,1,0,1,0,,,,,,,,,,,,,,,,,,,,,,,,,,,,,,,,,,,,,,,,,,,,,,,,,,,space,41.65385130000004,245.01658480000015,None,245.01658480000015,None,245.01658480000015,None,,,,,,,,,,,,,,,,,,,,,,,,,,,,user17,001,True,2022_Jun_03_1449,EyeTrackingStudy,2021.2.1,None,
2,0,2,0,,,,,,,,,,,,,,,,,,,,,,,,,,,,,,,,,,,,,,,,,,,,,,,,,,,,,,,,,,,,,,,-0.34074074074074073,-0.08425925925925926,1,0,0,2.7389976999998,B,0.00697776666675054,None,286.76476980000007,None,1,[3.9100499000001037],[3.9344415999999],286.76476980000007,None,2,"[2.1741860000001907, 2.7387972000001355]","[2.1741895000000113, 2.738800600000104]",286.76476980000007,None,,,,,,,user17,001,True,2022_Jun_03_1449,EyeTrackingStudy,2021.2.1,None,
3,0,3,0,0,0,0,0,,,,,,,,,,,,,,,,,,,,,,,,,,,,,,,,,,,,,,,,,,,,,,,,,,,space,70.57263150000017,289.64171650000026,None,289.64171650000026,None,289.64171650000026,None,,,,,,,,,,,,,,,,,,,,,,,,,,,,user17,001,True,2022_Jun_03_1449,EyeTrackingStudy,2021.2.1,None,
3,0,3,0,1,0,1,0,,,,,,,,,,,,,,,,,,,,,,,,,,,,,,,,,,,,,,,,,,,,,,,,,,,space,12.603800500000034,360.2986100000003,None,360.2986100000003,None,360.2986100000003,None,,,,,,,,,,,,,,,,,,,,,,,,,,,,user17,001,True,2022_Jun_03_1449,EyeTrackingStudy,2021.2.1,None,
3,0,3,0,,,,,,,,,,,,,,,,,,,,,,,,,,,,,,,,,,,,,,,,,,,,,,,,,,,,,,,,,,,,,,,-0.32592592592592595,-0.08611111111111111,1,0,0,1.5219989000001988,B,0.0092243666667855,None,372.9784104999999,None,1,[3.9100499000001037],[3.9344415999999],372.9784104999999,None,3,"[2.1741860000001907, 2.7387972000001355, 1.5218205999999554]","[2.1741895000000113, 2.738800600000104, 1.5218239999999241]",372.9784104999999,None,,,,,,,user17,001,True,2022_Jun_03_1449,EyeTrackingStudy,2021.2.1,None,
4,0,4,0,0,0,0,0,,,,,,,,,,,,,,,,,,,,,,,,,,,,,,,,,,,,,,,,,,,,,,,,,,,space,51.946176899999955,374.54818920000025,None,374.54818920000025,None,374.54818920000025,None,,,,,,,,,,,,,,,,,,,,,,,,,,,,user17,001,True,2022_Jun_03_1449,EyeTrackingStudy,2021.2.1,None,
4,0,4,0,1,0,1,0,,,,,,,,,,,,,,,,,,,,,,,,,,,,,,,,,,,,,,,,,,,,,,,,,,,space,27.27668330000006,426.5935528,None,426.5935528,None,426.5935528,None,,,,,,,,,,,,,,,,,,,,,,,,,,,,user17,001,True,2022_Jun_03_1449,EyeTrackingStudy,2021.2.1,None,
4,0,4,0,,,,,,,,,,,,,,,,,,,,,,,,,,,,,,,,,,,,,,,,,,,,,,,,,,,,,,,,,,,,,,,-0.1287037037037037,0.06851851851851852,1,0,0,3.572382899999866,A,0.0075719999999819265,None,453.92467829999987,None,2,"[3.9100499000001037, 3.5721723999999995]","[3.9344415999999, 3.5721755000004123]",453.92467829999987,None,3,"[2.1741860000001907, 2.7387972000001355, 1.5218205999999554]","[2.1741895000000113, 2.738800600000104, 1.5218239999999241]",453.92467829999987,None,,,,,,,user17,001,True,2022_Jun_03_1449,EyeTrackingStudy,2021.2.1,None,
5,0,5,0,0,0,0,0,,,,,,,,,,,,,,,,,,,,,,,,,,,,,,,,,,,,,,,,,,,,,,,,,,,space,56.47484900000018,457.5553917000002,None,457.5553917000002,None,457.5553917000002,None,,,,,,,,,,,,,,,,,,,,,,,,,,,,user17,001,True,2022_Jun_03_1449,EyeTrackingStudy,2021.2.1,None,
5,0,5,0,1,0,1,0,,,,,,,,,,,,,,,,,,,,,,,,,,,,,,,,,,,,,,,,,,,,,,,,,,,space,27.293226300000242,514.1290589,None,514.1290589,None,514.1290589,None,,,,,,,,,,,,,,,,,,,,,,,,,,,,user17,001,True,2022_Jun_03_1449,EyeTrackingStudy,2021.2.1,None,
5,0,5,0,,,,,,,,,,,,,,,,,,,,,,,,,,,,,,,,,,,,,,,,,,,,,,,,,,,,,,,,,,,,,,,-0.23703703703703705,-0.11203703703703703,1,0,0,4.030141600000206,B,0.012609899999915797,None,541.4828830000001,None,2,"[3.9100499000001037, 3.5721723999999995]","[3.9344415999999, 3.5721755000004123]",541.4828830000001,None,4,"[2.1741860000001907, 2.7387972000001355, 1.5218205999999554, 4.030003700000179]","[2.1741895000000113, 2.738800600000104, 1.5218239999999241, 4.0300072]",541.4828830000001,None,,,,,,,user17,001,True,2022_Jun_03_1449,EyeTrackingStudy,2021.2.1,None,
6,0,6,0,0,0,0,0,,,,,,,,,,,,,,,,,,,,,,,,,,,,,,,,,,,,,,,,,,,,,,,,,,,space,64.88299959999995,545.57116,None,545.57116,None,545.57116,None,,,,,,,,,,,,,,,,,,,,,,,,,,,,user17,001,True,2022_Jun_03_1449,EyeTrackingStudy,2021.2.1,None,
6,0,6,0,1,0,1,0,,,,,,,,,,,,,,,,,,,,,,,,,,,,,,,,,,,,,,,,,,,,,,,,,,,space,45.44482730000027,610.5532808000003,None,610.5532808000003,None,610.5532808000003,None,,,,,,,,,,,,,,,,,,,,,,,,,,,,user17,001,True,2022_Jun_03_1449,EyeTrackingStudy,2021.2.1,None,
6,0,6,0,,,,,,,,,,,,,,,,,,,,,,,,,,,,,,,,,,,,,,,,,,,,,,,,,,,,,,,,,,,,,,,-0.1398148148148148,0.062037037037037036,1,0,0,7.203259099999741,A,0.004912599999897793,None,656.0692537,None,3,"[3.9100499000001037, 3.5721723999999995, 7.203058400000373]","[3.9344415999999, 3.5721755000004123, 7.203061900000193]",656.0692537,None,4,"[2.1741860000001907, 2.7387972000001355, 1.5218205999999554, 4.030003700000179]","[2.1741895000000113, 2.738800600000104, 1.5218239999999241, 4.0300072]",656.0692537,None,,,,,,,user17,001,True,2022_Jun_03_1449,EyeTrackingStudy,2021.2.1,None,
7,0,7,0,0,0,0,0,,,,,,,,,,,,,,,,,,,,,,,,,,,,,,,,,,,,,,,,,,,,,,,,,,,space,43.61422920000041,663.3358807,None,663.3358807,None,663.3358807,None,,,,,,,,,,,,,,,,,,,,,,,,,,,,user17,001,True,2022_Jun_03_1449,EyeTrackingStudy,2021.2.1,None,
7,0,7,0,1,0,1,0,,,,,,,,,,,,,,,,,,,,,,,,,,,,,,,,,,,,,,,,,,,,,,,,,,,space,15.101937900000394,707.0321332000003,None,707.0321332000003,None,707.0321332000003,None,,,,,,,,,,,,,,,,,,,,,,,,,,,,user17,001,True,2022_Jun_03_1449,EyeTrackingStudy,2021.2.1,None,
7,0,7,0,,,,,,,,,,,,,,,,,,,,,,,,,,,,,,,,,,,,,,,,,,,,,,,,,,,,,,,,,,,,,,,-0.2962962962962963,-0.08981481481481482,1,0,0,2.231830699999591,B,0.0001449999999749707,None,722.2222323000001,None,3,"[3.9100499000001037, 3.5721723999999995, 7.203058400000373]","[3.9344415999999, 3.5721755000004123, 7.203061900000193]",722.2222323000001,None,5,"[2.1741860000001907, 2.7387972000001355, 1.5218205999999554, 4.030003700000179, 2.231680899999901]","[2.1741895000000113, 2.738800600000104, 1.5218239999999241, 4.0300072, 2.2316845000000285]",722.2222323000001,None,,,,,,,user17,001,True,2022_Jun_03_1449,EyeTrackingStudy,2021.2.1,None,
8,0,8,0,0,0,0,0,,,,,,,,,,,,,,,,,,,,,,,,,,,,,,,,,,,,,,,,,,,,,,,,,,,,,,,,,,,-0.2962962962962963,-0.08981481481481482,1,0,0,0.0003729999998540734,B,0.008689366667113063,None,724.4595210666669,None,3,"[3.9100499000001037, 3.5721723999999995, 7.203058400000373]","[3.9344415999999, 3.5721755000004123, 7.203061900000193]",724.4595210666669,None,5,"[2.1741860000001907, 2.7387972000001355, 1.5218205999999554, 4.030003700000179, 2.231680899999901]","[2.1741895000000113, 2.738800600000104, 1.5218239999999241, 4.0300072, 0.00010099999963131268]",724.4595210666669,None,,,,,,,user17,001,True,2022_Jun_03_1449,EyeTrackingStudy,2021.2.1,None,
9,0,9,0,0,0,0,0,,,,,,,,,,,,,,,,,,,,,,,,,,,,,,,,,,,,,,,,,,,,,,,,,,,,,,,,,,,-0.2962962962962963,-0.08981481481481482,1,0,0,0.00022190000026967027,B,0.0034942666666211153,None,724.4595210666669,None,3,"[3.9100499000001037, 3.5721723999999995, 7.203058400000373]","[3.9344415999999, 3.5721755000004123, 7.203061900000193]",724.4595210666669,None,5,"[2.1741860000001907, 2.7387972000001355, 1.5218205999999554, 4.030003700000179, 2.231680899999901]","[2.1741895000000113, 2.738800600000104, 1.5218239999999241, 4.0300072, 9.129999989454518e-05]",724.4595210666669,None,,,,,,,user17,001,True,2022_Jun_03_1449,EyeTrackingStudy,2021.2.1,None,
10,0,10,0,0,0,0,0,,,,,,,,,,,,,,,,,,,,,,,,,,,,,,,,,,,,,,,,,,,,,,,,,,,,,,,,,,,-0.2962962962962963,-0.08981481481481482,1,0,0,0.000262999999904423,B,0.014429633333293168,None,724.4761877333335,None,3,"[3.9100499000001037, 3.5721723999999995, 7.203058400000373]","[3.9344415999999, 3.5721755000004123, 7.203061900000193]",724.4761877333335,None,5,"[2.1741860000001907, 2.7387972000001355, 1.5218205999999554, 4.030003700000179, 2.231680899999901]","[2.1741895000000113, 2.738800600000104, 1.5218239999999241, 4.0300072, 0.00010070000007544877]",724.4761877333335,None,,,,,,,user17,001,True,2022_Jun_03_1449,EyeTrackingStudy,2021.2.1,None,
11,0,11,0,0,0,0,0,,,,,,,,,,,,,,,,,,,,,,,,,,,,,,,,,,,,,,,,,,,,,,,,,,,,,,,,,,,-0.2962962962962963,-0.08981481481481482,1,0,0,0.00022919999992154771,B,0.008902833333195304,None,724.4761877333335,None,3,"[3.9100499000001037, 3.5721723999999995, 7.203058400000373]","[3.9344415999999, 3.5721755000004123, 7.203061900000193]",724.4761877333335,None,5,"[2.1741860000001907, 2.7387972000001355, 1.5218205999999554, 4.030003700000179, 2.231680899999901]","[2.1741895000000113, 2.738800600000104, 1.5218239999999241, 4.0300072, 0.00010159999965253519]",724.4761877333335,None,,,,,,,user17,001,True,2022_Jun_03_1449,EyeTrackingStudy,2021.2.1,None,
12,0,12,0,0,0,0,0,,,,,,,,,,,,,,,,,,,,,,,,,,,,,,,,,,,,,,,,,,,,,,,,,,,,,,,,,,,-0.2962962962962963,-0.08981481481481482,1,0,0,0.00021280000009937794,B,0.0030246333330978814,None,724.4761877333335,None,3,"[3.9100499000001037, 3.5721723999999995, 7.203058400000373]","[3.9344415999999, 3.5721755000004123, 7.203061900000193]",724.4761877333335,None,5,"[2.1741860000001907, 2.7387972000001355, 1.5218205999999554, 4.030003700000179, 2.231680899999901]","[2.1741895000000113, 2.738800600000104, 1.5218239999999241, 4.0300072, 9.240000008503557e-05]",724.4761877333335,None,,,,,,,user17,001,True,2022_Jun_03_1449,EyeTrackingStudy,2021.2.1,None,
13,0,13,0,0,0,0,0,,,,,,,,,,,,,,,,,,,,,,,,,,,,,,,,,,,,,,,,,,,,,,,,,,,,,,,,,,,-0.2962962962962963,-0.08981481481481482,1,0,0,0.0002537000000302214,B,0.014295500000571337,None,724.4928544000002,None,3,"[3.9100499000001037, 3.5721723999999995, 7.203058400000373]","[3.9344415999999, 3.5721755000004123, 7.203061900000193]",724.4928544000002,None,5,"[2.1741860000001907, 2.7387972000001355, 1.5218205999999554, 4.030003700000179, 2.231680899999901]","[2.1741895000000113, 2.738800600000104, 1.5218239999999241, 4.0300072, 9.049999971466605e-05]",724.4928544000002,None,,,,,,,user17,001,True,2022_Jun_03_1449,EyeTrackingStudy,2021.2.1,None,
14,0,14,0,0,0,0,0,,,,,,,,,,,,,,,,,,,,,,,,,,,,,,,,,,,,,,,,,,,,,,,,,,,,,,,,,,,-0.2962962962962963,-0.08981481481481482,1,0,0,0.000252599999839731,B,0.008177899999736837,None,724.4928544000002,None,3,"[3.9100499000001037, 3.5721723999999995, 7.203058400000373]","[3.9344415999999, 3.5721755000004123, 7.203061900000193]",724.4928544000002,None,5,"[2.1741860000001907, 2.7387972000001355, 1.5218205999999554, 4.030003700000179, 2.231680899999901]","[2.1741895000000113, 2.738800600000104, 1.5218239999999241, 4.0300072, 0.0001281999998354877]",724.4928544000002,None,,,,,,,user17,001,True,2022_Jun_03_1449,EyeTrackingStudy,2021.2.1,None,
15,0,15,0,0,0,0,0,,,,,,,,,,,,,,,,,,,,,,,,,,,,,,,,,,,,,,,,,,,,,,,,,,,,,,,,,,,-0.2962962962962963,-0.08981481481481482,1,0,0,0.00021670000023732428,B,0.003084499999658874,None,724.4928544000002,None,3,"[3.9100499000001037, 3.5721723999999995, 7.203058400000373]","[3.9344415999999, 3.5721755000004123, 7.203061900000193]",724.4928544000002,None,5,"[2.1741860000001907, 2.7387972000001355, 1.5218205999999554, 4.030003700000179, 2.231680899999901]","[2.1741895000000113, 2.738800600000104, 1.5218239999999241, 4.0300072, 9.18999999157677e-05]",724.4928544000002,None,,,,,,,user17,001,True,2022_Jun_03_1449,EyeTrackingStudy,2021.2.1,None,
,,,,0,0,0,0,,,,,,,,,,,,,,,,,,,,,,,,,,,,,,,,,,,,,,,,,,,,,,,,,,,,,,,,,,,,,,,,,,,,,,,,,,,,,,,,724.5602128999999,None,space,3.4619651000002705,724.5602128999999,None,user17,001,True,2022_Jun_03_1449,EyeTrackingStudy,2021.2.1,None,
