trials.thisRepN,trials.thisTrialN,trials.thisN,trials.thisIndex,trials_2.thisRepN,trials_2.thisTrialN,trials_2.thisN,trials_2.thisIndex,Introduction.started,Introduction.stopped,EndTaskKey.keys,EndTaskKey.rt,EndTaskKey.started,EndTaskKey.stopped,instructions.started,instructions.stopped,KyeNext.keys,KyeNext.rt,KyeNext.started,KyeNext.stopped,introduction2.started,introduction2.stopped,SpaceBar.keys,SpaceBar.rt,SpaceBar.started,SpaceBar.stopped,text_start.started,text_start.stopped,srart_key.keys,srart_key.rt,srart_key.started,srart_key.stopped,key_resp2.keys,key_resp2.rt,key_resp2.started,key_resp2.stopped,image.started,image.stopped,text_2.started,text_2.stopped,mouse.x,mouse.y,mouse.leftButton,mouse.midButton,mouse.rightButton,mouse.time,mouse.clicked_name,mouse.started,mouse.stopped,A.started,A.stopped,A.numClicks,A.timesOn,A.timesOff,B.started,B.stopped,B.numClicks,B.timesOn,B.timesOff,text_3.started,text_3.stopped,text.started,text.stopped,key_resp_2.keys,key_resp_2.rt,key_resp_2.started,key_resp_2.stopped,participant,session,use_eyetracking,date,expName,psychopyVersion,frameRate,
,,,,,,,,27.58923199999998,None,space,14.029860399999961,27.58923199999998,None,,,,,,,,,,,,,,,,,,,,,,,,,,,,,,,,,,,,,,,,,,,,,,,,,,,,,,user1,001,True,2022_May_04_1122,EyeTrackingStudy,2021.2.1,60.01705684754303,
,,,,,,,,,,,,,,41.63857509999997,None,space,12.932499500000006,41.63857509999997,None,,,,,,,,,,,,,,,,,,,,,,,,,,,,,,,,,,,,,,,,,,,,,,,,user1,001,True,2022_May_04_1122,EyeTrackingStudy,2021.2.1,60.01705684754303,
,,,,,,,,,,,,,,,,,,,,54.5880502,None,space,13.238962200000003,54.5880502,None,,,,,,,,,,,,,,,,,,,,,,,,,,,,,,,,,,,,,,,,,,user1,001,True,2022_May_04_1122,EyeTrackingStudy,2021.2.1,60.01705684754303,
,,,,,,,,,,,,,,,,,,,,,,,,,,67.85427609999999,None,space,5.40495930000003,67.85427609999999,None,,,,,,,,,,,,,,,,,,,,,,,,,,,,,,,,,,,,user1,001,True,2022_May_04_1122,EyeTrackingStudy,2021.2.1,60.01705684754303,
0,0,0,0,0,0,0,0,,,,,,,,,,,,,,,,,,,,,,,,,space,74.3839941,75.57090469999997,None,75.57090469999997,None,75.57090469999997,None,,,,,,,,,,,,,,,,,,,,,,,,,,,,user1,001,True,2022_May_04_1122,EyeTrackingStudy,2021.2.1,60.01705684754303,
0,0,0,0,1,0,1,0,,,,,,,,,,,,,,,,,,,,,,,,,space,59.80608649999999,150.08464700000002,None,150.08464700000002,None,150.08464700000002,None,,,,,,,,,,,,,,,,,,,,,,,,,,,,user1,001,True,2022_May_04_1122,EyeTrackingStudy,2021.2.1,60.01705684754303,
0,0,0,0,,,,,,,,,,,,,,,,,,,,,,,,,,,,,,,,,,,,,-0.10462962962962963,0.12037037037037036,1,0,0,7.781028200000037,A,0.013644029999909435,None,209.94901879999998,None,1,[7.780727600000091],[7.78073130000007],209.94901879999998,None,0,,,209.94901879999998,None,,,,,,,user1,001,True,2022_May_04_1122,EyeTrackingStudy,2021.2.1,60.01705684754303,
1,0,1,0,0,0,0,0,,,,,,,,,,,,,,,,,,,,,,,,,space,101.14710620000005,217.81553699999995,None,217.81553699999995,None,217.81553699999995,None,,,,,,,,,,,,,,,,,,,,,,,,,,,,user1,001,True,2022_May_04_1122,EyeTrackingStudy,2021.2.1,60.01705684754303,
1,0,1,0,1,0,1,0,,,,,,,,,,,,,,,,,,,,,,,,,space,74.61991509999996,319.078486,None,319.078486,None,319.078486,None,,,,,,,,,,,,,,,,,,,,,,,,,,,,user1,001,True,2022_May_04_1122,EyeTrackingStudy,2021.2.1,60.01705684754303,
1,0,1,0,,,,,,,,,,,,,,,,,,,,,,,,,,,,,,,,,,,,,-0.23796296296296296,-0.10740740740740741,1,0,0,10.608528999999976,B,0.009746849999942242,None,393.80918199999996,None,1,[7.780727600000091],[7.78073130000007],393.80918199999996,None,1,[10.608340300000009],[10.608343999999988],393.80918199999996,None,,,,,,,user1,001,True,2022_May_04_1122,EyeTrackingStudy,2021.2.1,60.01705684754303,
2,0,2,0,0,0,0,0,,,,,,,,,,,,,,,,,,,,,,,,,space,47.486809700000094,404.4754905,None,404.4754905,None,404.4754905,None,,,,,,,,,,,,,,,,,,,,,,,,,,,,user1,001,True,2022_May_04_1122,EyeTrackingStudy,2021.2.1,60.01705684754303,
2,0,2,0,1,0,1,0,,,,,,,,,,,,,,,,,,,,,,,,,space,83.07334029999993,452.05711669999994,None,452.05711669999994,None,452.05711669999994,None,,,,,,,,,,,,,,,,,,,,,,,,,,,,user1,001,True,2022_May_04_1122,EyeTrackingStudy,2021.2.1,60.01705684754303,
2,0,2,0,,,,,,,,,,,,,,,,,,,,,,,,,,,,,,,,,,,,,0.1527777777777778,0.07037037037037037,1,0,0,16.665825100000006,A,0.01561974999992799,None,535.2208339,None,2,"[7.780727600000091, 16.665347800000063]","[7.78073130000007, 16.66535190000002]",535.2208339,None,1,[10.608340300000009],[10.608343999999988],535.2208339,None,,,,,,,user1,001,True,2022_May_04_1122,EyeTrackingStudy,2021.2.1,60.01705684754303,
3,0,3,0,0,0,0,0,,,,,,,,,,,,,,,,,,,,,,,,,space,125.51680900000008,552.0371137,None,552.0371137,None,552.0371137,None,,,,,,,,,,,,,,,,,,,,,,,,,,,,user1,001,True,2022_May_04_1122,EyeTrackingStudy,2021.2.1,60.01705684754303,
3,0,3,0,1,0,1,0,,,,,,,,,,,,,,,,,,,,,,,,,space,42.41668600000003,677.6491878,None,677.6491878,None,677.6491878,None,,,,,,,,,,,,,,,,,,,,,,,,,,,,user1,001,True,2022_May_04_1122,EyeTrackingStudy,2021.2.1,60.01705684754303,
3,0,3,0,,,,,,,,,,,,,,,,,,,,,,,,,,,,,,,,,,,,,0.10185185185185185,0.06574074074074074,1,0,0,8.523378699999967,A,0.006325140000171814,None,720.1477581,None,3,"[7.780727600000091, 16.665347800000063, 8.523167999999941]","[7.78073130000007, 16.66535190000002, 8.5231718]",720.1477581,None,1,[10.608340300000009],[10.608343999999988],720.1477581,None,,,,,,,user1,001,True,2022_May_04_1122,EyeTrackingStudy,2021.2.1,60.01705684754303,
4,0,4,0,0,0,0,0,,,,,,,,,,,,,,,,,,,,,,,,,space,44.86668729999997,728.83099,None,728.83099,None,728.83099,None,,,,,,,,,,,,,,,,,,,,,,,,,,,,user1,001,True,2022_May_04_1122,EyeTrackingStudy,2021.2.1,60.01705684754303,
4,0,4,0,1,0,1,0,,,,,,,,,,,,,,,,,,,,,,,,,space,36.76583149999988,773.7958877,None,773.7958877,None,773.7958877,None,,,,,,,,,,,,,,,,,,,,,,,,,,,,user1,001,True,2022_May_04_1122,EyeTrackingStudy,2021.2.1,60.01705684754303,
4,0,4,0,,,,,,,,,,,,,,,,,,,,,,,,,,,,,,,,,,,,,0.09444444444444444,0.10277777777777777,1,0,0,5.37149989999989,A,0.004158529999813254,None,810.6279742,None,4,"[7.780727600000091, 16.665347800000063, 8.523167999999941, 5.371265600000015]","[7.78073130000007, 16.66535190000002, 8.5231718, 5.371269400000074]",810.6279742,None,1,[10.608340300000009],[10.608343999999988],810.6279742,None,,,,,,,user1,001,True,2022_May_04_1122,EyeTrackingStudy,2021.2.1,60.01705684754303,
5,0,5,0,0,0,0,0,,,,,,,,,,,,,,,,,,,,,,,,,space,40.76961300000016,816.0799384000001,None,816.0799384000001,None,816.0799384000001,None,,,,,,,,,,,,,,,,,,,,,,,,,,,,user1,001,True,2022_May_04_1122,EyeTrackingStudy,2021.2.1,60.01705684754303,
5,0,5,0,1,0,1,0,,,,,,,,,,,,,,,,,,,,,,,,,space,34.3138406999999,856.9596883,None,856.9596883,None,856.9596883,None,,,,,,,,,,,,,,,,,,,,,,,,,,,,user1,001,True,2022_May_04_1122,EyeTrackingStudy,2021.2.1,60.01705684754303,
5,0,5,0,,,,,,,,,,,,,,,,,,,,,,,,,,,,,,,,,,,,,-0.2861111111111111,0.07407407407407407,1,0,0,35.51012319999995,A,0.010758630000054836,None,891.3251088000001,None,5,"[7.780727600000091, 16.665347800000063, 8.523167999999941, 5.371265600000015, 35.509935699999915]","[7.78073130000007, 16.66535190000002, 8.5231718, 5.371269400000074, 35.50993940000012]",891.3251088000001,None,1,[10.608340300000009],[10.608343999999988],891.3251088000001,None,,,,,,,user1,001,True,2022_May_04_1122,EyeTrackingStudy,2021.2.1,60.01705684754303,
6,0,6,0,0,0,0,0,,,,,,,,,,,,,,,,,,,,,,,,,space,36.70081119999986,926.9405273000001,None,926.9405273000001,None,926.9405273000001,None,,,,,,,,,,,,,,,,,,,,,,,,,,,,user1,001,True,2022_May_04_1122,EyeTrackingStudy,2021.2.1,60.01705684754303,
6,0,6,0,1,0,1,0,,,,,,,,,,,,,,,,,,,,,,,,,space,90.9085935999999,963.7726503,None,963.7726503,None,963.7726503,None,,,,,,,,,,,,,,,,,,,,,,,,,,,,user1,001,True,2022_May_04_1122,EyeTrackingStudy,2021.2.1,60.01705684754303,
6,0,6,0,,,,,,,,,,,,,,,,,,,,,,,,,,,,,,,,,,,,,-0.06481481481481481,0.0712962962962963,1,0,0,9.533023100000037,A,0.01592954000057034,None,1054.7528042,None,6,"[7.780727600000091, 16.665347800000063, 8.523167999999941, 5.371265600000015, 35.509935699999915, 9.532796299999973]","[7.78073130000007, 16.66535190000002, 8.5231718, 5.371269400000074, 35.50993940000012, 9.532799899999873]",1054.7528042,None,1,[10.608340300000009],[10.608343999999988],1054.7528042,None,,,,,,,user1,001,True,2022_May_04_1122,EyeTrackingStudy,2021.2.1,60.01705684754303,
7,0,7,0,0,0,0,0,,,,,,,,,,,,,,,,,,,,,,,,,space,77.54660399999989,1064.3584939000002,None,1064.3584939000002,None,1064.3584939000002,None,,,,,,,,,,,,,,,,,,,,,,,,,,,,user1,001,True,2022_May_04_1122,EyeTrackingStudy,2021.2.1,60.01705684754303,
7,0,7,0,1,0,1,0,,,,,,,,,,,,,,,,,,,,,,,,,space,19.655941700000085,1142.0330978000002,None,1142.0330978000002,None,1142.0330978000002,None,,,,,,,,,,,,,,,,,,,,,,,,,,,,user1,001,True,2022_May_04_1122,EyeTrackingStudy,2021.2.1,60.01705684754303,
7,0,7,0,,,,,,,,,,,,,,,,,,,,,,,,,,,,,,,,,,,,,-0.05092592592592592,0.07222222222222222,1,0,0,6.496441600000026,A,0.012978239999938523,None,1161.7657009999998,None,7,"[7.780727600000091, 16.665347800000063, 8.523167999999941, 5.371265600000015, 35.509935699999915, 9.532796299999973, 6.47973009999987]","[7.78073130000007, 16.66535190000002, 8.5231718, 5.371269400000074, 35.50993940000012, 9.532799899999873, 6.49623819999988]",1161.7657009999998,None,1,[10.608340300000009],[10.608343999999988],1161.7657009999998,None,,,,,,,user1,001,True,2022_May_04_1122,EyeTrackingStudy,2021.2.1,60.01705684754303,
8,0,8,0,0,0,0,0,,,,,,,,,,,,,,,,,,,,,,,,,,,,,,,,,-0.05092592592592592,0.07222222222222222,1,0,0,0.00021209999999882712,A,0.011677810000037425,None,1168.2655340100002,None,7,"[7.780727600000091, 16.665347800000063, 8.523167999999941, 5.371265600000015, 35.509935699999915, 9.532796299999973, 6.47973009999987]","[7.78073130000007, 16.66535190000002, 8.5231718, 5.371269400000074, 35.50993940000012, 9.532799899999873, 9.729999987939664e-05]",1168.2655340100002,None,1,[10.608340300000009],[10.608343999999988],1168.2655340100002,None,,,,,,,user1,001,True,2022_May_04_1122,EyeTrackingStudy,2021.2.1,60.01705684754303,
9,0,9,0,0,0,0,0,,,,,,,,,,,,,,,,,,,,,,,,,,,,,,,,,-0.05092592592592592,0.07222222222222222,1,0,0,0.00020689999996648112,A,0.006634310000208643,None,1168.2655340100002,None,7,"[7.780727600000091, 16.665347800000063, 8.523167999999941, 5.371265600000015, 35.509935699999915, 9.532796299999973, 6.47973009999987]","[7.78073130000007, 16.66535190000002, 8.5231718, 5.371269400000074, 35.50993940000012, 9.532799899999873, 9.990000012294331e-05]",1168.2655340100002,None,1,[10.608340300000009],[10.608343999999988],1168.2655340100002,None,,,,,,,user1,001,True,2022_May_04_1122,EyeTrackingStudy,2021.2.1,60.01705684754303,
10,0,10,0,0,0,0,0,,,,,,,,,,,,,,,,,,,,,,,,,,,,,,,,,-0.05092592592592592,0.07222222222222222,1,0,0,0.00024189999999180145,A,0.0016192100003991072,None,1168.2655340100002,None,7,"[7.780727600000091, 16.665347800000063, 8.523167999999941, 5.371265600000015, 35.509935699999915, 9.532796299999973, 6.47973009999987]","[7.78073130000007, 16.66535190000002, 8.5231718, 5.371269400000074, 35.50993940000012, 9.532799899999873, 0.00010520000000724394]",1168.2655340100002,None,1,[10.608340300000009],[10.608343999999988],1168.2655340100002,None,,,,,,,user1,001,True,2022_May_04_1122,EyeTrackingStudy,2021.2.1,60.01705684754303,
11,0,11,0,0,0,0,0,,,,,,,,,,,,,,,,,,,,,,,,,,,,,,,,,-0.05092592592592592,0.07222222222222222,1,0,0,0.00040350000017497223,A,0.012039420000292012,None,1168.2822043200003,None,7,"[7.780727600000091, 16.665347800000063, 8.523167999999941, 5.371265600000015, 35.509935699999915, 9.532796299999973, 6.47973009999987]","[7.78073130000007, 16.66535190000002, 8.5231718, 5.371269400000074, 35.50993940000012, 9.532799899999873, 0.00014310000005934853]",1168.2822043200003,None,1,[10.608340300000009],[10.608343999999988],1168.2822043200003,None,,,,,,,user1,001,True,2022_May_04_1122,EyeTrackingStudy,2021.2.1,60.01705684754303,
12,0,12,0,0,0,0,0,,,,,,,,,,,,,,,,,,,,,,,,,,,,,,,,,-0.05092592592592592,0.07222222222222222,1,0,0,0.00029109999991305813,A,0.006864320000204316,None,1168.2822043200003,None,7,"[7.780727600000091, 16.665347800000063, 8.523167999999941, 5.371265600000015, 35.509935699999915, 9.532796299999973, 6.47973009999987]","[7.78073130000007, 16.66535190000002, 8.5231718, 5.371269400000074, 35.50993940000012, 9.532799899999873, 0.00013379999995777325]",1168.2822043200003,None,1,[10.608340300000009],[10.608343999999988],1168.2822043200003,None,,,,,,,user1,001,True,2022_May_04_1122,EyeTrackingStudy,2021.2.1,60.01705684754303,
13,0,13,0,0,0,0,0,,,,,,,,,,,,,,,,,,,,,,,,,,,,,,,,,-0.05092592592592592,0.07222222222222222,1,0,0,0.00022109999986241746,A,0.001960620000545532,None,1168.2822043200003,None,7,"[7.780727600000091, 16.665347800000063, 8.523167999999941, 5.371265600000015, 35.509935699999915, 9.532796299999973, 6.47973009999987]","[7.78073130000007, 16.66535190000002, 8.5231718, 5.371269400000074, 35.50993940000012, 9.532799899999873, 0.0001029000000016822]",1168.2822043200003,None,1,[10.608340300000009],[10.608343999999988],1168.2822043200003,None,,,,,,,user1,001,True,2022_May_04_1122,EyeTrackingStudy,2021.2.1,60.01705684754303,
14,0,14,0,0,0,0,0,,,,,,,,,,,,,,,,,,,,,,,,,,,,,,,,,-0.05092592592592592,0.07222222222222222,1,0,0,0.0002223999999841908,A,0.013603930000272157,None,1168.2988746300002,None,7,"[7.780727600000091, 16.665347800000063, 8.523167999999941, 5.371265600000015, 35.509935699999915, 9.532796299999973, 6.47973009999987]","[7.78073130000007, 16.66535190000002, 8.5231718, 5.371269400000074, 35.50993940000012, 9.532799899999873, 9.750000003805326e-05]",1168.2988746300002,None,1,[10.608340300000009],[10.608343999999988],1168.2988746300002,None,,,,,,,user1,001,True,2022_May_04_1122,EyeTrackingStudy,2021.2.1,60.01705684754303,
15,0,15,0,0,0,0,0,,,,,,,,,,,,,,,,,,,,,,,,,,,,,,,,,-0.05092592592592592,0.07222222222222222,1,0,0,0.0002389999999650172,A,0.008680630000299061,None,1168.2988746300002,None,7,"[7.780727600000091, 16.665347800000063, 8.523167999999941, 5.371265600000015, 35.509935699999915, 9.532796299999973, 6.47973009999987]","[7.78073130000007, 16.66535190000002, 8.5231718, 5.371269400000074, 35.50993940000012, 9.532799899999873, 0.00010129999986929761]",1168.2988746300002,None,1,[10.608340300000009],[10.608343999999988],1168.2988746300002,None,,,,,,,user1,001,True,2022_May_04_1122,EyeTrackingStudy,2021.2.1,60.01705684754303,
,,,,0,0,0,0,,,,,,,,,,,,,,,,,,,,,,,,,,,,,,,,,,,,,,,,,,,,,,,,,,,,,,1168.3821803,None,space,6.514737299999979,1168.3821803,None,user1,001,True,2022_May_04_1122,EyeTrackingStudy,2021.2.1,60.01705684754303,
