trials.thisRepN,trials.thisTrialN,trials.thisN,trials.thisIndex,trials_2.thisRepN,trials_2.thisTrialN,trials_2.thisN,trials_2.thisIndex,Introduction.started,Introduction.stopped,EndTaskKey.keys,EndTaskKey.rt,EndTaskKey.started,EndTaskKey.stopped,instructions.started,instructions.stopped,KyeNext.keys,KyeNext.rt,KyeNext.started,KyeNext.stopped,image_3.started,image_3.stopped,key_resp_4.keys,key_resp_4.rt,key_resp_4.started,key_resp_4.stopped,image_4.started,image_4.stopped,key_resp_5.keys,key_resp_5.rt,key_resp_5.started,key_resp_5.stopped,C.started,C.stopped,C.numClicks,C.timesOn,C.timesOff,D.started,D.stopped,D.numClicks,D.timesOn,D.timesOff,mouse_2.x,mouse_2.y,mouse_2.leftButton,mouse_2.midButton,mouse_2.rightButton,mouse_2.clicked_name,mouse_2.started,mouse_2.stopped,text_5.started,text_5.stopped,text_4.started,text_4.stopped,key_resp_3.keys,key_resp_3.rt,key_resp_3.started,key_resp_3.stopped,key_resp2.keys,key_resp2.rt,key_resp2.started,key_resp2.stopped,image.started,image.stopped,text_2.started,text_2.stopped,mouse.x,mouse.y,mouse.leftButton,mouse.midButton,mouse.rightButton,mouse.time,mouse.clicked_name,mouse.started,mouse.stopped,A.started,A.stopped,A.numClicks,A.timesOn,A.timesOff,B.started,B.stopped,B.numClicks,B.timesOn,B.timesOff,text_3.started,text_3.stopped,text.started,text.stopped,key_resp_2.keys,key_resp_2.rt,key_resp_2.started,key_resp_2.stopped,participant,session,use_eyetracking,date,expName,psychopyVersion,frameRate,
,,,,,,,,16.381387400004314,None,space,13.68897410001955,16.381387400004314,None,,,,,,,,,,,,,,,,,,,,,,,,,,,,,,,,,,,,,,,,,,,,,,,,,,,,,,,,,,,,,,,,,,,,,,,,,,,,,,,,user12,001,True,2022_May_27_1321,EyeTrackingStudy,2021.2.1,None,
,,,,,,,,,,,,,,30.093473799992353,None,space,21.528949100000318,30.093473799992353,None,,,,,,,,,,,,,,,,,,,,,,,,,,,,,,,,,,,,,,,,,,,,,,,,,,,,,,,,,,,,,,,,,,,,,,,,,,user12,001,True,2022_May_27_1321,EyeTrackingStudy,2021.2.1,None,
,,,,,,,,,,,,,,,,,,,,51.66796550000436,None,space,11.36241489998065,51.66796550000436,None,,,,,,,,,,,,,,,,,,,,,,,,,,,,,,,,,,,,,,,,,,,,,,,,,,,,,,,,,,,,,,,,,,,,user12,001,True,2022_May_27_1321,EyeTrackingStudy,2021.2.1,None,
,,,,,,,,,,,,,,,,,,,,,,,,,,63.06903889999376,None,space,6.9773031000222545,63.06903889999376,None,,,,,,,,,,,,,,,,,,,,,,,,,,,,,,,,,,,,,,,,,,,,,,,,,,,,,,,,,,,,,,user12,001,True,2022_May_27_1321,EyeTrackingStudy,2021.2.1,None,
,,,,,,,,,,,,,,,,,,,,,,,,,,,,,,,,70.09985729999607,None,1,[7.8525272000115365],[7.852530700009083],70.09985729999607,None,0,,,-0.14444444444444443,0.10925925925925926,1,0,0,C,0.012504566635470837,None,,,,,,,,,,,,,,,,,,,,,,,,,,,,,,,,,,,,,,,,,,,,user12,001,True,2022_May_27_1321,EyeTrackingStudy,2021.2.1,None,
,,,,,,,,,,,,,,,,,,,,,,,,,,,,,,,,,,,,,,,,,,,,,,,,,,70.09985729999607,None,77.94857539999066,None,space,5.305697800009511,77.94857539999066,None,,,,,,,,,,,,,,,,,,,,,,,,,,,,,,,,,,,,user12,001,True,2022_May_27_1321,EyeTrackingStudy,2021.2.1,None,
0,0,0,0,0,0,0,0,,,,,,,,,,,,,,,,,,,,,,,,,,,,,,,,,,,,,,,,,,,,,,,,,,,space,10.705137299984926,85.3731192999985,None,85.3731192999985,None,85.3731192999985,None,,,,,,,,,,,,,,,,,,,,,,,,,,,,user12,001,True,2022_May_27_1321,EyeTrackingStudy,2021.2.1,None,
0,0,0,0,1,0,1,0,,,,,,,,,,,,,,,,,,,,,,,,,,,,,,,,,,,,,,,,,,,,,,,,,,,space,8.204220499988878,96.16203229999519,None,96.16203229999519,None,96.16203229999519,None,,,,,,,,,,,,,,,,,,,,,,,,,,,,user12,001,True,2022_May_27_1321,EyeTrackingStudy,2021.2.1,None,
0,0,0,0,,,,,,,,,,,,,,,,,,,,,,,,,,,,,,,,,,,,,,,,,,,,,,,,,,,,,,,,,,,,,,,-0.15555555555555556,-0.11296296296296296,1,0,0,6.53603300001123,B,0.0028059333271812648,None,104.4061327999807,None,0,,,104.4061327999807,None,1,[6.535861800017301],[6.535865400015609],104.4061327999807,None,,,,,,,user12,001,True,2022_May_27_1321,EyeTrackingStudy,2021.2.1,None,
1,0,1,0,0,0,0,0,,,,,,,,,,,,,,,,,,,,,,,,,,,,,,,,,,,,,,,,,,,,,,,,,,,space,31.01719939999748,110.98902219999582,None,110.98902219999582,None,110.98902219999582,None,,,,,,,,,,,,,,,,,,,,,,,,,,,,user12,001,True,2022_May_27_1321,EyeTrackingStudy,2021.2.1,None,
1,0,1,0,1,0,1,0,,,,,,,,,,,,,,,,,,,,,,,,,,,,,,,,,,,,,,,,,,,,,,,,,,,space,13.173206000006758,142.08103020000271,None,142.08103020000271,None,142.08103020000271,None,,,,,,,,,,,,,,,,,,,,,,,,,,,,user12,001,True,2022_May_27_1321,EyeTrackingStudy,2021.2.1,None,
1,0,1,0,,,,,,,,,,,,,,,,,,,,,,,,,,,,,,,,,,,,,,,,,,,,,,,,,,,,,,,,,,,,,,,-0.14907407407407408,-0.10925925925925926,1,0,0,11.918908899999224,B,0.001945500000147149,None,155.3388822999841,None,0,,,155.3388822999841,None,2,"[6.535861800017301, 11.918732099991757]","[6.535865400015609, 11.918735599989304]",155.3388822999841,None,,,,,,,user12,001,True,2022_May_27_1321,EyeTrackingStudy,2021.2.1,None,
2,0,2,0,0,0,0,0,,,,,,,,,,,,,,,,,,,,,,,,,,,,,,,,,,,,,,,,,,,,,,,,,,,space,15.93497390000266,167.30308979999973,None,167.30308979999973,None,167.30308979999973,None,,,,,,,,,,,,,,,,,,,,,,,,,,,,user12,001,True,2022_May_27_1321,EyeTrackingStudy,2021.2.1,None,
2,0,2,0,1,0,1,0,,,,,,,,,,,,,,,,,,,,,,,,,,,,,,,,,,,,,,,,,,,,,,,,,,,space,10.840208400011761,183.30987589998404,None,183.30987589998404,None,183.30987589998404,None,,,,,,,,,,,,,,,,,,,,,,,,,,,,user12,001,True,2022_May_27_1321,EyeTrackingStudy,2021.2.1,None,
2,0,2,0,,,,,,,,,,,,,,,,,,,,,,,,,,,,,,,,,,,,,,,,,,,,,,,,,,,,,,,,,,,,,,,-0.1398148148148148,-0.1,1,0,0,3.9009086000151,B,0.008831666695186868,None,194.24773449997883,None,0,,,194.24773449997883,None,3,"[6.535861800017301, 11.918732099991757, 3.900792000000365]","[6.535865400015609, 11.918735599989304, 3.900795300025493]",194.24773449997883,None,,,,,,,user12,001,True,2022_May_27_1321,EyeTrackingStudy,2021.2.1,None,
3,0,3,0,0,0,0,0,,,,,,,,,,,,,,,,,,,,,,,,,,,,,,,,,,,,,,,,,,,,,,,,,,,space,30.330011100013508,198.1960468000034,None,198.1960468000034,None,198.1960468000034,None,,,,,,,,,,,,,,,,,,,,,,,,,,,,user12,001,True,2022_May_27_1321,EyeTrackingStudy,2021.2.1,None,
3,0,3,0,1,0,1,0,,,,,,,,,,,,,,,,,,,,,,,,,,,,,,,,,,,,,,,,,,,,,,,,,,,space,16.229743400006555,228.60829019997618,None,228.60829019997618,None,228.60829019997618,None,,,,,,,,,,,,,,,,,,,,,,,,,,,,user12,001,True,2022_May_27_1321,EyeTrackingStudy,2021.2.1,None,
3,0,3,0,,,,,,,,,,,,,,,,,,,,,,,,,,,,,,,,,,,,,,,,,,,,,,,,,,,,,,,,,,,,,,,-0.17037037037037037,0.125,1,0,0,4.725921200006269,A,0.010000166686950251,None,244.91196199998376,None,1,[4.7257275999872945],[4.725731200014707],244.91196199998376,None,3,"[6.535861800017301, 11.918732099991757, 3.900792000000365]","[6.535865400015609, 11.918735599989304, 3.900795300025493]",244.91196199998376,None,,,,,,,user12,001,True,2022_May_27_1321,EyeTrackingStudy,2021.2.1,None,
4,0,4,0,0,0,0,0,,,,,,,,,,,,,,,,,,,,,,,,,,,,,,,,,,,,,,,,,,,,,,,,,,,space,16.87986159999855,249.6861514999764,None,249.6861514999764,None,249.6861514999764,None,,,,,,,,,,,,,,,,,,,,,,,,,,,,user12,001,True,2022_May_27_1321,EyeTrackingStudy,2021.2.1,None,
4,0,4,0,1,0,1,0,,,,,,,,,,,,,,,,,,,,,,,,,,,,,,,,,,,,,,,,,,,,,,,,,,,space,4.338100900000427,266.63587359999656,None,266.63587359999656,None,266.63587359999656,None,,,,,,,,,,,,,,,,,,,,,,,,,,,,user12,001,True,2022_May_27_1321,EyeTrackingStudy,2021.2.1,None,
4,0,4,0,,,,,,,,,,,,,,,,,,,,,,,,,,,,,,,,,,,,,,,,,,,,,,,,,,,,,,,,,,,,,,,0.2101851851851852,-0.1111111111111111,1,0,0,3.925071500008926,B,0.008162599988281727,None,271.04467750000185,None,1,[4.7257275999872945],[4.725731200014707],271.04467750000185,None,4,"[6.535861800017301, 11.918732099991757, 3.900792000000365, 3.9249076999840327]","[6.535865400015609, 11.918735599989304, 3.900795300025493, 3.9249109999800567]",271.04467750000185,None,,,,,,,user12,001,True,2022_May_27_1321,EyeTrackingStudy,2021.2.1,None,
5,0,5,0,0,0,0,0,,,,,,,,,,,,,,,,,,,,,,,,,,,,,,,,,,,,,,,,,,,,,,,,,,,space,8.645199699996738,275.0167493999761,None,275.0167493999761,None,275.0167493999761,None,,,,,,,,,,,,,,,,,,,,,,,,,,,,user12,001,True,2022_May_27_1321,EyeTrackingStudy,2021.2.1,None,
5,0,5,0,1,0,1,0,,,,,,,,,,,,,,,,,,,,,,,,,,,,,,,,,,,,,,,,,,,,,,,,,,,space,18.570744699973147,283.73918720000074,None,283.73918720000074,None,283.73918720000074,None,,,,,,,,,,,,,,,,,,,,,,,,,,,,user12,001,True,2022_May_27_1321,EyeTrackingStudy,2021.2.1,None,
5,0,5,0,,,,,,,,,,,,,,,,,,,,,,,,,,,,,,,,,,,,,,,,,,,,,,,,,,,,,,,,,,,,,,,-0.03796296296296296,-0.0787037037037037,1,0,0,3.660421700013103,B,0.014357799984281883,None,302.3580266999779,None,1,[4.7257275999872945],[4.725731200014707],302.3580266999779,None,5,"[6.535861800017301, 11.918732099991757, 3.900792000000365, 3.9249076999840327, 3.6602627000247594]","[6.535865400015609, 11.918735599989304, 3.900795300025493, 3.9249109999800567, 3.6602665000245906]",302.3580266999779,None,,,,,,,user12,001,True,2022_May_27_1321,EyeTrackingStudy,2021.2.1,None,
6,0,6,0,0,0,0,0,,,,,,,,,,,,,,,,,,,,,,,,,,,,,,,,,,,,,,,,,,,,,,,,,,,space,4.957141899998533,306.08077420000336,None,306.08077420000336,None,306.08077420000336,None,,,,,,,,,,,,,,,,,,,,,,,,,,,,user12,001,True,2022_May_27_1321,EyeTrackingStudy,2021.2.1,None,
6,0,6,0,1,0,1,0,,,,,,,,,,,,,,,,,,,,,,,,,,,,,,,,,,,,,,,,,,,,,,,,,,,space,14.996422299998812,311.12154849999934,None,311.12154849999934,None,311.12154849999934,None,,,,,,,,,,,,,,,,,,,,,,,,,,,,user12,001,True,2022_May_27_1321,EyeTrackingStudy,2021.2.1,None,
6,0,6,0,,,,,,,,,,,,,,,,,,,,,,,,,,,,,,,,,,,,,,,,,,,,,,,,,,,,,,,,,,,,,,,-0.15092592592592594,0.08981481481481482,1,0,0,5.081284499989124,A,0.005780700012110174,None,326.1964964999934,None,2,"[4.7257275999872945, 5.0810518999933265]","[4.725731200014707, 5.081055399990873]",326.1964964999934,None,5,"[6.535861800017301, 11.918732099991757, 3.900792000000365, 3.9249076999840327, 3.6602627000247594]","[6.535865400015609, 11.918735599989304, 3.900795300025493, 3.9249109999800567, 3.6602665000245906]",326.1964964999934,None,,,,,,,user12,001,True,2022_May_27_1321,EyeTrackingStudy,2021.2.1,None,
7,0,7,0,0,0,0,0,,,,,,,,,,,,,,,,,,,,,,,,,,,,,,,,,,,,,,,,,,,,,,,,,,,space,25.186242600000696,331.3236469999829,None,331.3236469999829,None,331.3236469999829,None,,,,,,,,,,,,,,,,,,,,,,,,,,,,user12,001,True,2022_May_27_1321,EyeTrackingStudy,2021.2.1,None,
7,0,7,0,1,0,1,0,,,,,,,,,,,,,,,,,,,,,,,,,,,,,,,,,,,,,,,,,,,,,,,,,,,space,3.4858264999929816,356.5842868000036,None,356.5842868000036,None,356.5842868000036,None,,,,,,,,,,,,,,,,,,,,,,,,,,,,user12,001,True,2022_May_27_1321,EyeTrackingStudy,2021.2.1,None,
7,0,7,0,,,,,,,,,,,,,,,,,,,,,,,,,,,,,,,,,,,,,,,,,,,,,,,,,,,,,,,,,,,,,,,0.017592592592592594,-0.11574074074074074,1,0,0,2.896855400002096,B,0.0010047999676316977,None,360.136923699989,None,2,"[4.7257275999872945, 5.0810518999933265]","[4.725731200014707, 5.081055399990873]",360.136923699989,None,6,"[6.535861800017301, 11.918732099991757, 3.900792000000365, 3.9249076999840327, 3.6602627000247594, 2.8966965000145137]","[6.535865400015609, 11.918735599989304, 3.900795300025493, 3.9249109999800567, 3.6602665000245906, 2.8966998000105377]",360.136923699989,None,,,,,,,user12,001,True,2022_May_27_1321,EyeTrackingStudy,2021.2.1,None,
8,0,8,0,0,0,0,0,,,,,,,,,,,,,,,,,,,,,,,,,,,,,,,,,,,,,,,,,,,,,,,,,,,,,,,,,,,0.017592592592592594,-0.11574074074074074,1,0,0,0.00022839999292045832,B,0.0082994666590821,None,363.0393074666538,None,2,"[4.7257275999872945, 5.0810518999933265]","[4.725731200014707, 5.081055399990873]",363.0393074666538,None,6,"[6.535861800017301, 11.918732099991757, 3.900792000000365, 3.9249076999840327, 3.6602627000247594, 2.8966965000145137]","[6.535865400015609, 11.918735599989304, 3.900795300025493, 3.9249109999800567, 3.6602665000245906, 0.0001010000123642385]",363.0393074666538,None,,,,,,,user12,001,True,2022_May_27_1321,EyeTrackingStudy,2021.2.1,None,
9,0,9,0,0,0,0,0,,,,,,,,,,,,,,,,,,,,,,,,,,,,,,,,,,,,,,,,,,,,,,,,,,,,,,,,,,,0.017592592592592594,-0.11574074074074074,1,0,0,0.00024579997989349067,B,0.002561766654253006,None,363.0393074666538,None,2,"[4.7257275999872945, 5.0810518999933265]","[4.725731200014707, 5.081055399990873]",363.0393074666538,None,6,"[6.535861800017301, 11.918732099991757, 3.900792000000365, 3.9249076999840327, 3.6602627000247594, 2.8966965000145137]","[6.535865400015609, 11.918735599989304, 3.900795300025493, 3.9249109999800567, 3.6602665000245906, 0.00010259999544359744]",363.0393074666538,None,,,,,,,user12,001,True,2022_May_27_1321,EyeTrackingStudy,2021.2.1,None,
10,0,10,0,0,0,0,0,,,,,,,,,,,,,,,,,,,,,,,,,,,,,,,,,,,,,,,,,,,,,,,,,,,,,,,,,,,0.017592592592592594,-0.11574074074074074,1,0,0,0.0003406000032555312,B,0.013452433340717107,None,363.05597413332043,None,2,"[4.7257275999872945, 5.0810518999933265]","[4.725731200014707, 5.081055399990873]",363.05597413332043,None,6,"[6.535861800017301, 11.918732099991757, 3.900792000000365, 3.9249076999840327, 3.6602627000247594, 2.8966965000145137]","[6.535865400015609, 11.918735599989304, 3.900795300025493, 3.9249109999800567, 3.6602665000245906, 0.00010380000458098948]",363.05597413332043,None,,,,,,,user12,001,True,2022_May_27_1321,EyeTrackingStudy,2021.2.1,None,
11,0,11,0,0,0,0,0,,,,,,,,,,,,,,,,,,,,,,,,,,,,,,,,,,,,,,,,,,,,,,,,,,,,,,,,,,,0.017592592592592594,-0.11574074074074074,1,0,0,0.00021919998107478023,B,0.007563633320387453,None,363.05597413332043,None,2,"[4.7257275999872945, 5.0810518999933265]","[4.725731200014707, 5.081055399990873]",363.05597413332043,None,6,"[6.535861800017301, 11.918732099991757, 3.900792000000365, 3.9249076999840327, 3.6602627000247594, 2.8966965000145137]","[6.535865400015609, 11.918735599989304, 3.900795300025493, 3.9249109999800567, 3.6602665000245906, 9.21999744605273e-05]",363.05597413332043,None,,,,,,,user12,001,True,2022_May_27_1321,EyeTrackingStudy,2021.2.1,None,
12,0,12,0,0,0,0,0,,,,,,,,,,,,,,,,,,,,,,,,,,,,,,,,,,,,,,,,,,,,,,,,,,,,,,,,,,,0.017592592592592594,-0.11574074074074074,1,0,0,0.0002077000099234283,B,0.002337133337277919,None,363.05597413332043,None,2,"[4.7257275999872945, 5.0810518999933265]","[4.725731200014707, 5.081055399990873]",363.05597413332043,None,6,"[6.535861800017301, 11.918732099991757, 3.900792000000365, 3.9249076999840327, 3.6602627000247594, 2.8966965000145137]","[6.535865400015609, 11.918735599989304, 3.900795300025493, 3.9249109999800567, 3.6602665000245906, 9.660000796429813e-05]",363.05597413332043,None,,,,,,,user12,001,True,2022_May_27_1321,EyeTrackingStudy,2021.2.1,None,
13,0,13,0,0,0,0,0,,,,,,,,,,,,,,,,,,,,,,,,,,,,,,,,,,,,,,,,,,,,,,,,,,,,,,,,,,,0.017592592592592594,-0.11574074074074074,1,0,0,0.00020219999714754522,B,0.01352999999653548,None,363.07264079998714,None,2,"[4.7257275999872945, 5.0810518999933265]","[4.725731200014707, 5.081055399990873]",363.07264079998714,None,6,"[6.535861800017301, 11.918732099991757, 3.900792000000365, 3.9249076999840327, 3.6602627000247594, 2.8966965000145137]","[6.535865400015609, 11.918735599989304, 3.900795300025493, 3.9249109999800567, 3.6602665000245906, 9.06999921426177e-05]",363.07264079998714,None,,,,,,,user12,001,True,2022_May_27_1321,EyeTrackingStudy,2021.2.1,None,
14,0,14,0,0,0,0,0,,,,,,,,,,,,,,,,,,,,,,,,,,,,,,,,,,,,,,,,,,,,,,,,,,,,,,,,,,,0.017592592592592594,-0.11574074074074074,1,0,0,0.00020169999334029853,B,0.008547199977329,None,363.07264079998714,None,2,"[4.7257275999872945, 5.0810518999933265]","[4.725731200014707, 5.081055399990873]",363.07264079998714,None,6,"[6.535861800017301, 11.918732099991757, 3.900792000000365, 3.9249076999840327, 3.6602627000247594, 2.8966965000145137]","[6.535865400015609, 11.918735599989304, 3.900795300025493, 3.9249109999800567, 3.6602665000245906, 0.00015129998791962862]",363.07264079998714,None,,,,,,,user12,001,True,2022_May_27_1321,EyeTrackingStudy,2021.2.1,None,
15,0,15,0,0,0,0,0,,,,,,,,,,,,,,,,,,,,,,,,,,,,,,,,,,,,,,,,,,,,,,,,,,,,,,,,,,,0.017592592592592594,-0.11574074074074074,1,0,0,0.00021740002557635307,B,0.003044799988856539,None,363.07264079998714,None,2,"[4.7257275999872945, 5.0810518999933265]","[4.725731200014707, 5.081055399990873]",363.07264079998714,None,6,"[6.535861800017301, 11.918732099991757, 3.900792000000365, 3.9249076999840327, 3.6602627000247594, 2.8966965000145137]","[6.535865400015609, 11.918735599989304, 3.900795300025493, 3.9249109999800567, 3.6602665000245906, 0.00010649999603629112]",363.07264079998714,None,,,,,,,user12,001,True,2022_May_27_1321,EyeTrackingStudy,2021.2.1,None,
,,,,0,0,0,0,,,,,,,,,,,,,,,,,,,,,,,,,,,,,,,,,,,,,,,,,,,,,,,,,,,,,,,,,,,,,,,,,,,,,,,,,,,,,,,,363.1379791999934,None,space,2.2119459999958053,363.1379791999934,None,user12,001,True,2022_May_27_1321,EyeTrackingStudy,2021.2.1,None,
