trials.thisRepN,trials.thisTrialN,trials.thisN,trials.thisIndex,trials_2.thisRepN,trials_2.thisTrialN,trials_2.thisN,trials_2.thisIndex,Introduction.started,Introduction.stopped,EndTaskKey.keys,EndTaskKey.rt,EndTaskKey.started,EndTaskKey.stopped,instructions.started,instructions.stopped,KyeNext.keys,KyeNext.rt,KyeNext.started,KyeNext.stopped,image_3.started,image_3.stopped,key_resp_4.keys,key_resp_4.rt,key_resp_4.started,key_resp_4.stopped,image_4.started,image_4.stopped,key_resp_5.keys,key_resp_5.rt,key_resp_5.started,key_resp_5.stopped,C.started,C.stopped,C.numClicks,C.timesOn,C.timesOff,D.started,D.stopped,D.numClicks,D.timesOn,D.timesOff,mouse_2.x,mouse_2.y,mouse_2.leftButton,mouse_2.midButton,mouse_2.rightButton,mouse_2.clicked_name,mouse_2.started,mouse_2.stopped,text_5.started,text_5.stopped,text_4.started,text_4.stopped,key_resp_3.keys,key_resp_3.rt,key_resp_3.started,key_resp_3.stopped,key_resp2.keys,key_resp2.rt,key_resp2.started,key_resp2.stopped,image.started,image.stopped,text_2.started,text_2.stopped,mouse.x,mouse.y,mouse.leftButton,mouse.midButton,mouse.rightButton,mouse.time,mouse.clicked_name,mouse.started,mouse.stopped,A.started,A.stopped,A.numClicks,A.timesOn,A.timesOff,B.started,B.stopped,B.numClicks,B.timesOn,B.timesOff,text_3.started,text_3.stopped,text.started,text.stopped,key_resp_2.keys,key_resp_2.rt,key_resp_2.started,key_resp_2.stopped,participant,session,use_eyetracking,date,expName,psychopyVersion,frameRate,
,,,,,,,,16.9824493000051,None,space,5.011664500023471,16.9824493000051,None,,,,,,,,,,,,,,,,,,,,,,,,,,,,,,,,,,,,,,,,,,,,,,,,,,,,,,,,,,,,,,,,,,,,,,,,,,,,,,,,user11,001,True,2022_May_27_1200,EyeTrackingStudy,2021.2.1,None,
,,,,,,,,,,,,,,22.02632750000339,None,space,33.079549000016414,22.02632750000339,None,,,,,,,,,,,,,,,,,,,,,,,,,,,,,,,,,,,,,,,,,,,,,,,,,,,,,,,,,,,,,,,,,,,,,,,,,,user11,001,True,2022_May_27_1200,EyeTrackingStudy,2021.2.1,None,
,,,,,,,,,,,,,,,,,,,,55.14240800001426,None,space,10.027506300015375,55.14240800001426,None,,,,,,,,,,,,,,,,,,,,,,,,,,,,,,,,,,,,,,,,,,,,,,,,,,,,,,,,,,,,,,,,,,,,user11,001,True,2022_May_27_1200,EyeTrackingStudy,2021.2.1,None,
,,,,,,,,,,,,,,,,,,,,,,,,,,65.20969530000002,None,space,6.912280499993358,65.20969530000002,None,,,,,,,,,,,,,,,,,,,,,,,,,,,,,,,,,,,,,,,,,,,,,,,,,,,,,,,,,,,,,,user11,001,True,2022_May_27_1200,EyeTrackingStudy,2021.2.1,None,
,,,,,,,,,,,,,,,,,,,,,,,,,,,,,,,,72.1737054999976,None,1,[7.71944159999839],[7.71944529999746],72.1737054999976,None,0,,,-0.22685185185185186,0.11203703703703703,1,0,0,C,0.013355066650547087,None,,,,,,,,,,,,,,,,,,,,,,,,,,,,,,,,,,,,,,,,,,,,user11,001,True,2022_May_27_1200,EyeTrackingStudy,2021.2.1,None,
,,,,,,,,,,,,,,,,,,,,,,,,,,,,,,,,,,,,,,,,,,,,,,,,,,72.1737054999976,None,79.88969579999684,None,space,4.320241599984001,79.88969579999684,None,,,,,,,,,,,,,,,,,,,,,,,,,,,,,,,,,,,,user11,001,True,2022_May_27_1200,EyeTrackingStudy,2021.2.1,None,
0,0,0,0,0,0,0,0,,,,,,,,,,,,,,,,,,,,,,,,,,,,,,,,,,,,,,,,,,,,,,,,,,,space,0.09480140000232495,86.355069799989,None,86.355069799989,None,86.355069799989,None,,,,,,,,,,,,,,,,,,,,,,,,,,,,user11,001,True,2022_May_27_1200,EyeTrackingStudy,2021.2.1,None,
0,0,0,0,1,0,1,0,,,,,,,,,,,,,,,,,,,,,,,,,,,,,,,,,,,,,,,,,,,,,,,,,,,space,44.916990600002464,86.53283499999088,None,86.53283499999088,None,86.53283499999088,None,,,,,,,,,,,,,,,,,,,,,,,,,,,,user11,001,True,2022_May_27_1200,EyeTrackingStudy,2021.2.1,None,
0,0,0,0,,,,,,,,,,,,,,,,,,,,,,,,,,,,,,,,,,,,,,,,,,,,,,,,,,,,,,,,,,,,,,,-0.3398148148148148,0.10648148148148148,1,0,0,2.099673399992753,A,0.002453733322909102,None,131.50876259998768,None,1,[2.0994202999863774],[2.099423999985447],131.50876259998768,None,0,,,131.50876259998768,None,,,,,,,user11,001,True,2022_May_27_1200,EyeTrackingStudy,2021.2.1,None,
1,0,1,0,0,0,0,0,,,,,,,,,,,,,,,,,,,,,,,,,,,,,,,,,,,,,,,,,,,,,,,,,,,space,33.22947789999307,133.69227649999084,None,133.69227649999084,None,133.69227649999084,None,,,,,,,,,,,,,,,,,,,,,,,,,,,,user11,001,True,2022_May_27_1200,EyeTrackingStudy,2021.2.1,None,
1,0,1,0,1,0,1,0,,,,,,,,,,,,,,,,,,,,,,,,,,,,,,,,,,,,,,,,,,,,,,,,,,,space,16.337175099994056,167.0166143999959,None,167.0166143999959,None,167.0166143999959,None,,,,,,,,,,,,,,,,,,,,,,,,,,,,user11,001,True,2022_May_27_1200,EyeTrackingStudy,2021.2.1,None,
1,0,1,0,,,,,,,,,,,,,,,,,,,,,,,,,,,,,,,,,,,,,,,,,,,,,,,,,,,,,,,,,,,,,,,-0.03611111111111111,-0.09814814814814815,1,0,0,4.617273500014562,B,0.0010726999898906797,None,183.41309879999608,None,1,[2.0994202999863774],[2.099423999985447],183.41309879999608,None,1,[4.617048699990846],[4.617052899993723],183.41309879999608,None,,,,,,,user11,001,True,2022_May_27_1200,EyeTrackingStudy,2021.2.1,None,
2,0,2,0,0,0,0,0,,,,,,,,,,,,,,,,,,,,,,,,,,,,,,,,,,,,,,,,,,,,,,,,,,,space,21.354386200022418,188.0873191000137,None,188.0873191000137,None,188.0873191000137,None,,,,,,,,,,,,,,,,,,,,,,,,,,,,user11,001,True,2022_May_27_1200,EyeTrackingStudy,2021.2.1,None,
2,0,2,0,1,0,1,0,,,,,,,,,,,,,,,,,,,,,,,,,,,,,,,,,,,,,,,,,,,,,,,,,,,space,22.196369899989804,209.54126050000195,None,209.54126050000195,None,209.54126050000195,None,,,,,,,,,,,,,,,,,,,,,,,,,,,,user11,001,True,2022_May_27_1200,EyeTrackingStudy,2021.2.1,None,
2,0,2,0,,,,,,,,,,,,,,,,,,,,,,,,,,,,,,,,,,,,,,,,,,,,,,,,,,,,,,,,,,,,,,,-0.16018518518518518,-0.10277777777777777,1,0,0,1.3421432999894023,B,0.011260066676186398,None,231.8036044999899,None,1,[2.0994202999863774],[2.099423999985447],231.8036044999899,None,2,"[4.617048699990846, 1.341968100023223]","[4.617052899993723, 1.3419724999985192]",231.8036044999899,None,,,,,,,user11,001,True,2022_May_27_1200,EyeTrackingStudy,2021.2.1,None,
3,0,3,0,0,0,0,0,,,,,,,,,,,,,,,,,,,,,,,,,,,,,,,,,,,,,,,,,,,,,,,,,,,space,63.886437400011346,233.1951429999899,None,233.1951429999899,None,233.1951429999899,None,,,,,,,,,,,,,,,,,,,,,,,,,,,,user11,001,True,2022_May_27_1200,EyeTrackingStudy,2021.2.1,None,
3,0,3,0,1,0,1,0,,,,,,,,,,,,,,,,,,,,,,,,,,,,,,,,,,,,,,,,,,,,,,,,,,,space,14.367474200000288,297.1621823000023,None,297.1621823000023,None,297.1621823000023,None,,,,,,,,,,,,,,,,,,,,,,,,,,,,user11,001,True,2022_May_27_1200,EyeTrackingStudy,2021.2.1,None,
3,0,3,0,,,,,,,,,,,,,,,,,,,,,,,,,,,,,,,,,,,,,,,,,,,,,,,,,,,,,,,,,,,,,,,-0.20925925925925926,-0.08148148148148149,1,0,0,2.2725424999953248,B,0.008357666665688157,None,311.62039759999607,None,1,[2.0994202999863774],[2.099423999985447],311.62039759999607,None,3,"[4.617048699990846, 1.341968100023223, 2.27214460002142]","[4.617052899993723, 1.3419724999985192, 2.2721487000235356]",311.62039759999607,None,,,,,,,user11,001,True,2022_May_27_1200,EyeTrackingStudy,2021.2.1,None,
4,0,4,0,0,0,0,0,,,,,,,,,,,,,,,,,,,,,,,,,,,,,,,,,,,,,,,,,,,,,,,,,,,space,29.581037500000093,313.94865589999245,None,313.94865589999245,None,313.94865589999245,None,,,,,,,,,,,,,,,,,,,,,,,,,,,,user11,001,True,2022_May_27_1200,EyeTrackingStudy,2021.2.1,None,
4,0,4,0,1,0,1,0,,,,,,,,,,,,,,,,,,,,,,,,,,,,,,,,,,,,,,,,,,,,,,,,,,,space,16.427411199983908,343.6140352000075,None,343.6140352000075,None,343.6140352000075,None,,,,,,,,,,,,,,,,,,,,,,,,,,,,user11,001,True,2022_May_27_1200,EyeTrackingStudy,2021.2.1,None,
4,0,4,0,,,,,,,,,,,,,,,,,,,,,,,,,,,,,,,,,,,,,,,,,,,,,,,,,,,,,,,,,,,,,,,-0.3037037037037037,-0.07222222222222222,1,0,0,3.9230446000001393,B,0.008455200004391372,None,360.10080590000143,None,1,[2.0994202999863774],[2.099423999985447],360.10080590000143,None,4,"[4.617048699990846, 1.341968100023223, 2.27214460002142, 3.9228944999922533]","[4.617052899993723, 1.3419724999985192, 2.2721487000235356, 3.9228982999920845]",360.10080590000143,None,,,,,,,user11,001,True,2022_May_27_1200,EyeTrackingStudy,2021.2.1,None,
5,0,5,0,0,0,0,0,,,,,,,,,,,,,,,,,,,,,,,,,,,,,,,,,,,,,,,,,,,,,,,,,,,space,53.460691000014776,364.08471019999706,None,364.08471019999706,None,364.08471019999706,None,,,,,,,,,,,,,,,,,,,,,,,,,,,,user11,001,True,2022_May_27_1200,EyeTrackingStudy,2021.2.1,None,
5,0,5,0,1,0,1,0,,,,,,,,,,,,,,,,,,,,,,,,,,,,,,,,,,,,,,,,,,,,,,,,,,,space,14.144869600015227,417.63250189999235,None,417.63250189999235,None,417.63250189999235,None,,,,,,,,,,,,,,,,,,,,,,,,,,,,user11,001,True,2022_May_27_1200,EyeTrackingStudy,2021.2.1,None,
5,0,5,0,,,,,,,,,,,,,,,,,,,,,,,,,,,,,,,,,,,,,,,,,,,,,,,,,,,,,,,,,,,,,,,-0.22870370370370371,0.10277777777777777,1,0,0,2.544971800001804,A,0.01425449998350814,None,431.8345840999973,None,2,"[2.0994202999863774, 2.5447799999965355]","[2.099423999985447, 2.5447836999956053]",431.8345840999973,None,4,"[4.617048699990846, 1.341968100023223, 2.27214460002142, 3.9228944999922533]","[4.617052899993723, 1.3419724999985192, 2.2721487000235356, 3.9228982999920845]",431.8345840999973,None,,,,,,,user11,001,True,2022_May_27_1200,EyeTrackingStudy,2021.2.1,None,
6,0,6,0,0,0,0,0,,,,,,,,,,,,,,,,,,,,,,,,,,,,,,,,,,,,,,,,,,,,,,,,,,,space,43.205821299983654,434.43546810001135,None,434.43546810001135,None,434.43546810001135,None,,,,,,,,,,,,,,,,,,,,,,,,,,,,user11,001,True,2022_May_27_1200,EyeTrackingStudy,2021.2.1,None,
6,0,6,0,1,0,1,0,,,,,,,,,,,,,,,,,,,,,,,,,,,,,,,,,,,,,,,,,,,,,,,,,,,space,46.279881399997976,477.73735999999917,None,477.73735999999917,None,477.73735999999917,None,,,,,,,,,,,,,,,,,,,,,,,,,,,,user11,001,True,2022_May_27_1200,EyeTrackingStudy,2021.2.1,None,
6,0,6,0,,,,,,,,,,,,,,,,,,,,,,,,,,,,,,,,,,,,,,,,,,,,,,,,,,,,,,,,,,,,,,,-0.18703703703703703,-0.06666666666666667,1,0,0,3.59300599998096,B,0.0037866999919060618,None,524.0825393999985,None,2,"[2.0994202999863774, 2.5447799999965355]","[2.099423999985447, 2.5447836999956053]",524.0825393999985,None,5,"[4.617048699990846, 1.341968100023223, 2.27214460002142, 3.9228944999922533, 3.592853499983903]","[4.617052899993723, 1.3419724999985192, 2.2721487000235356, 3.9228982999920845, 3.592858099989826]",524.0825393999985,None,,,,,,,user11,001,True,2022_May_27_1200,EyeTrackingStudy,2021.2.1,None,
7,0,7,0,0,0,0,0,,,,,,,,,,,,,,,,,,,,,,,,,,,,,,,,,,,,,,,,,,,,,,,,,,,space,37.47289090001141,527.7362026000046,None,527.7362026000046,None,527.7362026000046,None,,,,,,,,,,,,,,,,,,,,,,,,,,,,user11,001,True,2022_May_27_1200,EyeTrackingStudy,2021.2.1,None,
7,0,7,0,1,0,1,0,,,,,,,,,,,,,,,,,,,,,,,,,,,,,,,,,,,,,,,,,,,,,,,,,,,space,38.72964790000697,565.2794985999935,None,565.2794985999935,None,565.2794985999935,None,,,,,,,,,,,,,,,,,,,,,,,,,,,,user11,001,True,2022_May_27_1200,EyeTrackingStudy,2021.2.1,None,
7,0,7,0,,,,,,,,,,,,,,,,,,,,,,,,,,,,,,,,,,,,,,,,,,,,,,,,,,,,,,,,,,,,,,,-0.2361111111111111,0.08518518518518518,1,0,0,3.4805962000100408,A,0.0007362000178545713,None,604.0685247000074,None,3,"[2.0994202999863774, 2.5447799999965355, 3.480413499986753]","[2.099423999985447, 2.5447836999956053, 3.480417499988107]",604.0685247000074,None,5,"[4.617048699990846, 1.341968100023223, 2.27214460002142, 3.9228944999922533, 3.592853499983903]","[4.617052899993723, 1.3419724999985192, 2.2721487000235356, 3.9228982999920845, 3.592858099989826]",604.0685247000074,None,,,,,,,user11,001,True,2022_May_27_1200,EyeTrackingStudy,2021.2.1,None,
8,0,8,0,0,0,0,0,,,,,,,,,,,,,,,,,,,,,,,,,,,,,,,,,,,,,,,,,,,,,,,,,,,,,,,,,,,-0.2361111111111111,0.08518518518518518,1,0,0,0.00024120000307448208,A,0.008878966647898778,None,607.5543408666601,None,3,"[2.0994202999863774, 2.5447799999965355, 3.480413499986753]","[2.099423999985447, 2.5447836999956053, 0.00010770000517368317]",607.5543408666601,None,5,"[4.617048699990846, 1.341968100023223, 2.27214460002142, 3.9228944999922533, 3.592853499983903]","[4.617052899993723, 1.3419724999985192, 2.2721487000235356, 3.9228982999920845, 3.592858099989826]",607.5543408666601,None,,,,,,,user11,001,True,2022_May_27_1200,EyeTrackingStudy,2021.2.1,None,
9,0,9,0,0,0,0,0,,,,,,,,,,,,,,,,,,,,,,,,,,,,,,,,,,,,,,,,,,,,,,,,,,,,,,,,,,,-0.2361111111111111,0.08518518518518518,1,0,0,0.00023609999334439635,A,0.002943566651083529,None,607.5543408666601,None,3,"[2.0994202999863774, 2.5447799999965355, 3.480413499986753]","[2.099423999985447, 2.5447836999956053, 0.00010890001431107521]",607.5543408666601,None,5,"[4.617048699990846, 1.341968100023223, 2.27214460002142, 3.9228944999922533, 3.592853499983903]","[4.617052899993723, 1.3419724999985192, 2.2721487000235356, 3.9228982999920845, 3.592858099989826]",607.5543408666601,None,,,,,,,user11,001,True,2022_May_27_1200,EyeTrackingStudy,2021.2.1,None,
10,0,10,0,0,0,0,0,,,,,,,,,,,,,,,,,,,,,,,,,,,,,,,,,,,,,,,,,,,,,,,,,,,,,,,,,,,-0.2361111111111111,0.08518518518518518,1,0,0,0.0001976999919861555,A,0.014093933335971087,None,607.5710075333268,None,3,"[2.0994202999863774, 2.5447799999965355, 3.480413499986753]","[2.099423999985447, 2.5447836999956053, 9.350001346319914e-05]",607.5710075333268,None,5,"[4.617048699990846, 1.341968100023223, 2.27214460002142, 3.9228944999922533, 3.592853499983903]","[4.617052899993723, 1.3419724999985192, 2.2721487000235356, 3.9228982999920845, 3.592858099989826]",607.5710075333268,None,,,,,,,user11,001,True,2022_May_27_1200,EyeTrackingStudy,2021.2.1,None,
11,0,11,0,0,0,0,0,,,,,,,,,,,,,,,,,,,,,,,,,,,,,,,,,,,,,,,,,,,,,,,,,,,,,,,,,,,-0.2361111111111111,0.08518518518518518,1,0,0,0.0003547999949660152,A,0.008216933347284794,None,607.5710075333268,None,3,"[2.0994202999863774, 2.5447799999965355, 3.480413499986753]","[2.099423999985447, 2.5447836999956053, 0.0001044000091496855]",607.5710075333268,None,5,"[4.617048699990846, 1.341968100023223, 2.27214460002142, 3.9228944999922533, 3.592853499983903]","[4.617052899993723, 1.3419724999985192, 2.2721487000235356, 3.9228982999920845, 3.592858099989826]",607.5710075333268,None,,,,,,,user11,001,True,2022_May_27_1200,EyeTrackingStudy,2021.2.1,None,
12,0,12,0,0,0,0,0,,,,,,,,,,,,,,,,,,,,,,,,,,,,,,,,,,,,,,,,,,,,,,,,,,,,,,,,,,,-0.2361111111111111,0.08518518518518518,1,0,0,0.0002106000029016286,A,0.002509633341105655,None,607.5710075333268,None,3,"[2.0994202999863774, 2.5447799999965355, 3.480413499986753]","[2.099423999985447, 2.5447836999956053, 9.659997886046767e-05]",607.5710075333268,None,5,"[4.617048699990846, 1.341968100023223, 2.27214460002142, 3.9228944999922533, 3.592853499983903]","[4.617052899993723, 1.3419724999985192, 2.2721487000235356, 3.9228982999920845, 3.592858099989826]",607.5710075333268,None,,,,,,,user11,001,True,2022_May_27_1200,EyeTrackingStudy,2021.2.1,None,
13,0,13,0,0,0,0,0,,,,,,,,,,,,,,,,,,,,,,,,,,,,,,,,,,,,,,,,,,,,,,,,,,,,,,,,,,,-0.2361111111111111,0.08518518518518518,1,0,0,0.0002136999974027276,A,0.013283799984492362,None,607.5876741999934,None,3,"[2.0994202999863774, 2.5447799999965355, 3.480413499986753]","[2.099423999985447, 2.5447836999956053, 0.00010190001921728253]",607.5876741999934,None,5,"[4.617048699990846, 1.341968100023223, 2.27214460002142, 3.9228944999922533, 3.592853499983903]","[4.617052899993723, 1.3419724999985192, 2.2721487000235356, 3.9228982999920845, 3.592858099989826]",607.5876741999934,None,,,,,,,user11,001,True,2022_May_27_1200,EyeTrackingStudy,2021.2.1,None,
14,0,14,0,0,0,0,0,,,,,,,,,,,,,,,,,,,,,,,,,,,,,,,,,,,,,,,,,,,,,,,,,,,,,,,,,,,-0.2361111111111111,0.08518518518518518,1,0,0,0.0002620999875944108,A,0.007381500006886199,None,607.5876741999934,None,3,"[2.0994202999863774, 2.5447799999965355, 3.480413499986753]","[2.099423999985447, 2.5447836999956053, 9.87000239547342e-05]",607.5876741999934,None,5,"[4.617048699990846, 1.341968100023223, 2.27214460002142, 3.9228944999922533, 3.592853499983903]","[4.617052899993723, 1.3419724999985192, 2.2721487000235356, 3.9228982999920845, 3.592858099989826]",607.5876741999934,None,,,,,,,user11,001,True,2022_May_27_1200,EyeTrackingStudy,2021.2.1,None,
15,0,15,0,0,0,0,0,,,,,,,,,,,,,,,,,,,,,,,,,,,,,,,,,,,,,,,,,,,,,,,,,,,,,,,,,,,-0.2361111111111111,0.08518518518518518,1,0,0,0.0002626000205054879,A,0.0008991000067908317,None,607.5876741999934,None,3,"[2.0994202999863774, 2.5447799999965355, 3.480413499986753]","[2.099423999985447, 2.5447836999956053, 0.00010390000534243882]",607.5876741999934,None,5,"[4.617048699990846, 1.341968100023223, 2.27214460002142, 3.9228944999922533, 3.592853499983903]","[4.617052899993723, 1.3419724999985192, 2.2721487000235356, 3.9228982999920845, 3.592858099989826]",607.5876741999934,None,,,,,,,user11,001,True,2022_May_27_1200,EyeTrackingStudy,2021.2.1,None,
,,,,0,0,0,0,,,,,,,,,,,,,,,,,,,,,,,,,,,,,,,,,,,,,,,,,,,,,,,,,,,,,,,,,,,,,,,,,,,,,,,,,,,,,,,,607.6570417000039,None,space,2.831958199996734,607.6570417000039,None,user11,001,True,2022_May_27_1200,EyeTrackingStudy,2021.2.1,None,
