trials.thisRepN,trials.thisTrialN,trials.thisN,trials.thisIndex,trials_2.thisRepN,trials_2.thisTrialN,trials_2.thisN,trials_2.thisIndex,Introduction.started,Introduction.stopped,EndTaskKey.keys,EndTaskKey.rt,EndTaskKey.started,EndTaskKey.stopped,instructions.started,instructions.stopped,KyeNext.keys,KyeNext.rt,KyeNext.started,KyeNext.stopped,introduction2.started,introduction2.stopped,SpaceBar.keys,SpaceBar.rt,SpaceBar.started,SpaceBar.stopped,text_start.started,text_start.stopped,srart_key.keys,srart_key.rt,srart_key.started,srart_key.stopped,key_resp2.keys,key_resp2.rt,key_resp2.started,key_resp2.stopped,image.started,image.stopped,text_2.started,text_2.stopped,mouse.x,mouse.y,mouse.leftButton,mouse.midButton,mouse.rightButton,mouse.time,mouse.clicked_name,mouse.started,mouse.stopped,A.started,A.stopped,A.numClicks,A.timesOn,A.timesOff,B.started,B.stopped,B.numClicks,B.timesOn,B.timesOff,text_3.started,text_3.stopped,text.started,text.stopped,key_resp_2.keys,key_resp_2.rt,key_resp_2.started,key_resp_2.stopped,participant,session,use_eyetracking,date,expName,psychopyVersion,frameRate,
,,,,,,,,22.810011300000042,None,space,1.3627842999999302,22.810011300000042,None,,,,,,,,,,,,,,,,,,,,,,,,,,,,,,,,,,,,,,,,,,,,,,,,,,,,,,user5,001,True,2022_May_05_1234,EyeTrackingStudy,2021.2.1,None,
,,,,,,,,,,,,,,24.209484400000292,None,space,1.3232787000001736,24.209484400000292,None,,,,,,,,,,,,,,,,,,,,,,,,,,,,,,,,,,,,,,,,,,,,,,,,user5,001,True,2022_May_05_1234,EyeTrackingStudy,2021.2.1,None,
,,,,,,,,,,,,,,,,,,,,25.558859900000243,None,space,1.1099466999999095,25.558859900000243,None,,,,,,,,,,,,,,,,,,,,,,,,,,,,,,,,,,,,,,,,,,user5,001,True,2022_May_05_1234,EyeTrackingStudy,2021.2.1,None,
,,,,,,,,,,,,,,,,,,,,,,,,,,26.70007990000022,None,space,1.5687161999999262,26.70007990000022,None,,,,,,,,,,,,,,,,,,,,,,,,,,,,,,,,,,,,user5,001,True,2022_May_05_1234,EyeTrackingStudy,2021.2.1,None,
0,0,0,0,0,0,0,0,,,,,,,,,,,,,,,,,,,,,,,,,space,20.04263869999977,30.39413650000006,None,30.39413650000006,None,30.39413650000006,None,,,,,,,,,,,,,,,,,,,,,,,,,,,,user5,001,True,2022_May_05_1234,EyeTrackingStudy,2021.2.1,None,
0,0,0,0,1,0,1,0,,,,,,,,,,,,,,,,,,,,,,,,,space,13.248141499999747,50.54869890000009,None,50.54869890000009,None,50.54869890000009,None,,,,,,,,,,,,,,,,,,,,,,,,,,,,user5,001,True,2022_May_05_1234,EyeTrackingStudy,2021.2.1,None,
0,0,0,0,,,,,,,,,,,,,,,,,,,,,,,,,,,,,,,,,,,,,-0.05648148148148148,0.09351851851851851,1,0,0,3.1116643000000295,A,0.0157430000003842,None,63.85417600000028,None,1,[3.1114694999996573],[3.1114730999997846],63.85417600000028,None,0,,,63.85417600000028,None,,,,,,,user5,001,True,2022_May_05_1234,EyeTrackingStudy,2021.2.1,None,
1,0,1,0,0,0,0,0,,,,,,,,,,,,,,,,,,,,,,,,,space,22.743355300000076,67.03740850000031,None,67.03740850000031,None,67.03740850000031,None,,,,,,,,,,,,,,,,,,,,,,,,,,,,user5,001,True,2022_May_05_1234,EyeTrackingStudy,2021.2.1,None,
1,0,1,0,1,0,1,0,,,,,,,,,,,,,,,,,,,,,,,,,space,5.833267399999841,89.97954930000014,None,89.97954930000014,None,89.97954930000014,None,,,,,,,,,,,,,,,,,,,,,,,,,,,,user5,001,True,2022_May_05_1234,EyeTrackingStudy,2021.2.1,None,
1,0,1,0,,,,,,,,,,,,,,,,,,,,,,,,,,,,,,,,,,,,,-0.03425925925925926,0.09722222222222222,1,0,0,11.426571700000295,A,0.012201333333450748,None,96.01546439999993,None,2,"[3.1114694999996573, 11.42629719999968]","[3.1114730999997846, 11.426300799999808]",96.01546439999993,None,0,,,96.01546439999993,None,,,,,,,user5,001,True,2022_May_05_1234,EyeTrackingStudy,2021.2.1,None,
2,0,2,0,0,0,0,0,,,,,,,,,,,,,,,,,,,,,,,,,space,11.474283199999718,107.49048119999998,None,107.49048119999998,None,107.49048119999998,None,,,,,,,,,,,,,,,,,,,,,,,,,,,,user5,001,True,2022_May_05_1234,EyeTrackingStudy,2021.2.1,None,
2,0,2,0,1,0,1,0,,,,,,,,,,,,,,,,,,,,,,,,,space,38.04754950000006,119.08519960000012,None,119.08519960000012,None,119.08519960000012,None,,,,,,,,,,,,,,,,,,,,,,,,,,,,user5,001,True,2022_May_05_1234,EyeTrackingStudy,2021.2.1,None,
2,0,2,0,,,,,,,,,,,,,,,,,,,,,,,,,,,,,,,,,,,,,-0.0962962962962963,-0.12314814814814815,1,0,0,3.883272399999896,B,0.0006174666668812279,None,157.23005420000027,None,2,"[3.1114694999996573, 11.42629719999968]","[3.1114730999997846, 11.426300799999808]",157.23005420000027,None,1,[3.882887099999607],[3.882890299999872],157.23005420000027,None,,,,,,,user5,001,True,2022_May_05_1234,EyeTrackingStudy,2021.2.1,None,
3,0,3,0,0,0,0,0,,,,,,,,,,,,,,,,,,,,,,,,,space,26.729267000000164,161.28346520000014,None,161.28346520000014,None,161.28346520000014,None,,,,,,,,,,,,,,,,,,,,,,,,,,,,user5,001,True,2022_May_05_1234,EyeTrackingStudy,2021.2.1,None,
3,0,3,0,1,0,1,0,,,,,,,,,,,,,,,,,,,,,,,,,space,9.39054490000035,188.12619210000003,None,188.12619210000003,None,188.12619210000003,None,,,,,,,,,,,,,,,,,,,,,,,,,,,,user5,001,True,2022_May_05_1234,EyeTrackingStudy,2021.2.1,None,
3,0,3,0,,,,,,,,,,,,,,,,,,,,,,,,,,,,,,,,,,,,,-0.09166666666666666,0.11481481481481481,1,0,0,3.4515731000001324,A,0.01099856666633059,None,197.58632460000035,None,3,"[3.1114694999996573, 11.42629719999968, 3.451389199999994]","[3.1114730999997846, 11.426300799999808, 3.451392599999963]",197.58632460000035,None,1,[3.882887099999607],[3.882890299999872],197.58632460000035,None,,,,,,,user5,001,True,2022_May_05_1234,EyeTrackingStudy,2021.2.1,None,
4,0,4,0,0,0,0,0,,,,,,,,,,,,,,,,,,,,,,,,,space,23.850149699999747,201.09858020000001,None,201.09858020000001,None,201.09858020000001,None,,,,,,,,,,,,,,,,,,,,,,,,,,,,user5,001,True,2022_May_05_1234,EyeTrackingStudy,2021.2.1,None,
4,0,4,0,1,0,1,0,,,,,,,,,,,,,,,,,,,,,,,,,space,7.706688000000213,225.13803740000003,None,225.13803740000003,None,225.13803740000003,None,,,,,,,,,,,,,,,,,,,,,,,,,,,,user5,001,True,2022_May_05_1234,EyeTrackingStudy,2021.2.1,None,
4,0,4,0,,,,,,,,,,,,,,,,,,,,,,,,,,,,,,,,,,,,,-0.11944444444444445,-0.10277777777777777,1,0,0,3.3355854000001273,B,0.009644499999922118,None,232.91788450000013,None,3,"[3.1114694999996573, 11.42629719999968, 3.451389199999994]","[3.1114730999997846, 11.426300799999808, 3.451392599999963]",232.91788450000013,None,2,"[3.882887099999607, 3.335425100000066]","[3.882890299999872, 3.3354285000000345]",232.91788450000013,None,,,,,,,user5,001,True,2022_May_05_1234,EyeTrackingStudy,2021.2.1,None,
5,0,5,0,0,0,0,0,,,,,,,,,,,,,,,,,,,,,,,,,space,27.211024799999905,236.4416894000001,None,236.4416894000001,None,236.4416894000001,None,,,,,,,,,,,,,,,,,,,,,,,,,,,,user5,001,True,2022_May_05_1234,EyeTrackingStudy,2021.2.1,None,
5,0,5,0,1,0,1,0,,,,,,,,,,,,,,,,,,,,,,,,,space,6.359107700000095,263.7496351,None,263.7496351,None,263.7496351,None,,,,,,,,,,,,,,,,,,,,,,,,,,,,user5,001,True,2022_May_05_1234,EyeTrackingStudy,2021.2.1,None,
5,0,5,0,,,,,,,,,,,,,,,,,,,,,,,,,,,,,,,,,,,,,-0.125,-0.07407407407407407,1,0,0,2.5279661999998098,B,0.014509799999814277,None,270.1807994999999,None,3,"[3.1114694999996573, 11.42629719999968, 3.451389199999994]","[3.1114730999997846, 11.426300799999808, 3.451392599999963]",270.1807994999999,None,3,"[3.882887099999607, 3.335425100000066, 2.527848400000039]","[3.882890299999872, 3.3354285000000345, 2.527851599999849]",270.1807994999999,None,,,,,,,user5,001,True,2022_May_05_1234,EyeTrackingStudy,2021.2.1,None,
6,0,6,0,0,0,0,0,,,,,,,,,,,,,,,,,,,,,,,,,space,33.532957200000055,272.7758229000001,None,272.7758229000001,None,272.7758229000001,None,,,,,,,,,,,,,,,,,,,,,,,,,,,,user5,001,True,2022_May_05_1234,EyeTrackingStudy,2021.2.1,None,
6,0,6,0,1,0,1,0,,,,,,,,,,,,,,,,,,,,,,,,,space,22.57562680000001,306.39704470000015,None,306.39704470000015,None,306.39704470000015,None,,,,,,,,,,,,,,,,,,,,,,,,,,,,user5,001,True,2022_May_05_1234,EyeTrackingStudy,2021.2.1,None,
6,0,6,0,,,,,,,,,,,,,,,,,,,,,,,,,,,,,,,,,,,,,-0.049074074074074076,0.125,1,0,0,2.987156000000141,A,0.0024934000002758694,None,329.0557116,None,4,"[3.1114694999996573, 11.42629719999968, 3.451389199999994, 2.986960100000033]","[3.1114730999997846, 11.426300799999808, 3.451392599999963, 2.9869634000001497]",329.0557116,None,3,"[3.882887099999607, 3.335425100000066, 2.527848400000039]","[3.882890299999872, 3.3354285000000345, 2.527851599999849]",329.0557116,None,,,,,,,user5,001,True,2022_May_05_1234,EyeTrackingStudy,2021.2.1,None,
7,0,7,0,0,0,0,0,,,,,,,,,,,,,,,,,,,,,,,,,space,47.39438039999959,332.10627410000006,None,332.10627410000006,None,332.10627410000006,None,,,,,,,,,,,,,,,,,,,,,,,,,,,,user5,001,True,2022_May_05_1234,EyeTrackingStudy,2021.2.1,None,
7,0,7,0,1,0,1,0,,,,,,,,,,,,,,,,,,,,,,,,,space,5.820618900000227,379.58406570000034,None,379.58406570000034,None,379.58406570000034,None,,,,,,,,,,,,,,,,,,,,,,,,,,,,user5,001,True,2022_May_05_1234,EyeTrackingStudy,2021.2.1,None,
7,0,7,0,,,,,,,,,,,,,,,,,,,,,,,,,,,,,,,,,,,,,-0.08055555555555556,-0.0787037037037037,1,0,0,1.696501200000057,B,0.015895366666427435,None,385.47695840000006,None,4,"[3.1114694999996573, 11.42629719999968, 3.451389199999994, 2.986960100000033]","[3.1114730999997846, 11.426300799999808, 3.451392599999963, 2.9869634000001497]",385.47695840000006,None,4,"[3.882887099999607, 3.335425100000066, 2.527848400000039, 1.6963550999998915]","[3.882890299999872, 3.3354285000000345, 2.527851599999849, 1.6963584000000083]",385.47695840000006,None,,,,,,,user5,001,True,2022_May_05_1234,EyeTrackingStudy,2021.2.1,None,
8,0,8,0,0,0,0,0,,,,,,,,,,,,,,,,,,,,,,,,,,,,,,,,,-0.08055555555555556,-0.0787037037037037,1,0,0,0.00021960000003673485,B,0.008558666666431236,None,387.17863286666693,None,4,"[3.1114694999996573, 11.42629719999968, 3.451389199999994, 2.986960100000033]","[3.1114730999997846, 11.426300799999808, 3.451392599999963, 2.9869634000001497]",387.17863286666693,None,4,"[3.882887099999607, 3.335425100000066, 2.527848400000039, 1.6963550999998915]","[3.882890299999872, 3.3354285000000345, 2.527851599999849, 9.18999999157677e-05]",387.17863286666693,None,,,,,,,user5,001,True,2022_May_05_1234,EyeTrackingStudy,2021.2.1,None,
9,0,9,0,0,0,0,0,,,,,,,,,,,,,,,,,,,,,,,,,,,,,,,,,-0.08055555555555556,-0.0787037037037037,1,0,0,0.0002196999998886895,B,0.0031807666664462886,None,387.17863286666693,None,4,"[3.1114694999996573, 11.42629719999968, 3.451389199999994, 2.986960100000033]","[3.1114730999997846, 11.426300799999808, 3.451392599999963, 2.9869634000001497]",387.17863286666693,None,4,"[3.882887099999607, 3.335425100000066, 2.527848400000039, 1.6963550999998915]","[3.882890299999872, 3.3354285000000345, 2.527851599999849, 9.020000015880214e-05]",387.17863286666693,None,,,,,,,user5,001,True,2022_May_05_1234,EyeTrackingStudy,2021.2.1,None,
10,0,10,0,0,0,0,0,,,,,,,,,,,,,,,,,,,,,,,,,,,,,,,,,-0.08055555555555556,-0.0787037037037037,1,0,0,0.0002007000002777204,B,0.014909933333456138,None,387.1952995333336,None,4,"[3.1114694999996573, 11.42629719999968, 3.451389199999994, 2.986960100000033]","[3.1114730999997846, 11.426300799999808, 3.451392599999963, 2.9869634000001497]",387.1952995333336,None,4,"[3.882887099999607, 3.335425100000066, 2.527848400000039, 1.6963550999998915]","[3.882890299999872, 3.3354285000000345, 2.527851599999849, 8.9399999978923e-05]",387.1952995333336,None,,,,,,,user5,001,True,2022_May_05_1234,EyeTrackingStudy,2021.2.1,None,
11,0,11,0,0,0,0,0,,,,,,,,,,,,,,,,,,,,,,,,,,,,,,,,,-0.08055555555555556,-0.0787037037037037,1,0,0,0.0002183000001423352,B,0.009416633333785285,None,387.1952995333336,None,4,"[3.1114694999996573, 11.42629719999968, 3.451389199999994, 2.986960100000033]","[3.1114730999997846, 11.426300799999808, 3.451392599999963, 2.9869634000001497]",387.1952995333336,None,4,"[3.882887099999607, 3.335425100000066, 2.527848400000039, 1.6963550999998915]","[3.882890299999872, 3.3354285000000345, 2.527851599999849, 9.899999986373587e-05]",387.1952995333336,None,,,,,,,user5,001,True,2022_May_05_1234,EyeTrackingStudy,2021.2.1,None,
12,0,12,0,0,0,0,0,,,,,,,,,,,,,,,,,,,,,,,,,,,,,,,,,-0.08055555555555556,-0.0787037037037037,1,0,0,0.0002013000002989429,B,0.0039835333336668555,None,387.1952995333336,None,4,"[3.1114694999996573, 11.42629719999968, 3.451389199999994, 2.986960100000033]","[3.1114730999997846, 11.426300799999808, 3.451392599999963, 2.9869634000001497]",387.1952995333336,None,4,"[3.882887099999607, 3.335425100000066, 2.527848400000039, 1.6963550999998915]","[3.882890299999872, 3.3354285000000345, 2.527851599999849, 8.900000011635711e-05]",387.1952995333336,None,,,,,,,user5,001,True,2022_May_05_1234,EyeTrackingStudy,2021.2.1,None,
13,0,13,0,0,0,0,0,,,,,,,,,,,,,,,,,,,,,,,,,,,,,,,,,-0.08055555555555556,-0.0787037037037037,1,0,0,0.00024299999995491817,B,0.015210400000341906,None,387.2119662000003,None,4,"[3.1114694999996573, 11.42629719999968, 3.451389199999994, 2.986960100000033]","[3.1114730999997846, 11.426300799999808, 3.451392599999963, 2.9869634000001497]",387.2119662000003,None,4,"[3.882887099999607, 3.335425100000066, 2.527848400000039, 1.6963550999998915]","[3.882890299999872, 3.3354285000000345, 2.527851599999849, 0.0001081000000340282]",387.2119662000003,None,,,,,,,user5,001,True,2022_May_05_1234,EyeTrackingStudy,2021.2.1,None,
14,0,14,0,0,0,0,0,,,,,,,,,,,,,,,,,,,,,,,,,,,,,,,,,-0.08055555555555556,-0.0787037037037037,1,0,0,0.00021319999996194383,B,0.009393800000452757,None,387.2119662000003,None,4,"[3.1114694999996573, 11.42629719999968, 3.451389199999994, 2.986960100000033]","[3.1114730999997846, 11.426300799999808, 3.451392599999963, 2.9869634000001497]",387.2119662000003,None,4,"[3.882887099999607, 3.335425100000066, 2.527848400000039, 1.6963550999998915]","[3.882890299999872, 3.3354285000000345, 2.527851599999849, 9.900000031848322e-05]",387.2119662000003,None,,,,,,,user5,001,True,2022_May_05_1234,EyeTrackingStudy,2021.2.1,None,
15,0,15,0,0,0,0,0,,,,,,,,,,,,,,,,,,,,,,,,,,,,,,,,,-0.08055555555555556,-0.0787037037037037,1,0,0,0.00022039999976186664,B,0.004258700000264071,None,387.2119662000003,None,4,"[3.1114694999996573, 11.42629719999968, 3.451389199999994, 2.986960100000033]","[3.1114730999997846, 11.426300799999808, 3.451392599999963, 2.9869634000001497]",387.2119662000003,None,4,"[3.882887099999607, 3.335425100000066, 2.527848400000039, 1.6963550999998915]","[3.882890299999872, 3.3354285000000345, 2.527851599999849, 0.00010180000026593916]",387.2119662000003,None,,,,,,,user5,001,True,2022_May_05_1234,EyeTrackingStudy,2021.2.1,None,
,,,,0,0,0,0,,,,,,,,,,,,,,,,,,,,,,,,,,,,,,,,,,,,,,,,,,,,,,,,,,,,,,387.2936688,None,space,2.863055400000121,387.2936688,None,user5,001,True,2022_May_05_1234,EyeTrackingStudy,2021.2.1,None,
