trials.thisRepN,trials.thisTrialN,trials.thisN,trials.thisIndex,trials_2.thisRepN,trials_2.thisTrialN,trials_2.thisN,trials_2.thisIndex,Introduction.started,Introduction.stopped,EndTaskKey.keys,EndTaskKey.rt,EndTaskKey.started,EndTaskKey.stopped,instructions.started,instructions.stopped,KyeNext.keys,KyeNext.rt,KyeNext.started,KyeNext.stopped,introduction2.started,introduction2.stopped,SpaceBar.keys,SpaceBar.rt,SpaceBar.started,SpaceBar.stopped,text_start.started,text_start.stopped,srart_key.keys,srart_key.rt,srart_key.started,srart_key.stopped,key_resp2.keys,key_resp2.rt,key_resp2.started,key_resp2.stopped,image.started,image.stopped,text_2.started,text_2.stopped,mouse.x,mouse.y,mouse.leftButton,mouse.midButton,mouse.rightButton,mouse.time,mouse.clicked_name,mouse.started,mouse.stopped,A.started,A.stopped,A.numClicks,A.timesOn,A.timesOff,B.started,B.stopped,B.numClicks,B.timesOn,B.timesOff,text_3.started,text_3.stopped,text.started,text.stopped,key_resp_2.keys,key_resp_2.rt,key_resp_2.started,key_resp_2.stopped,participant,session,use_eyetracking,date,expName,psychopyVersion,frameRate,
,,,,,,,,11.284423582954332,None,space,0.32786949910223484,11.284423582954332,None,,,,,,,,,,,,,,,,,,,,,,,,,,,,,,,,,,,,,,,,,,,,,,,,,,,,,,cxcx,001,False,2022_Apr_17_1359,EyeTrackingStudy,2021.2.3,60.03163678768951,
,,,,,,,,,,,,,,11.631693332921714,None,space,0.3089346659835428,11.631693332921714,None,,,,,,,,,,,,,,,,,,,,,,,,,,,,,,,,,,,,,,,,,,,,,,,,cxcx,001,False,2022_Apr_17_1359,EyeTrackingStudy,2021.2.3,60.03163678768951,
,,,,,,,,,,,,,,,,,,,,11.967374499887228,None,space,0.23502483288757503,11.967374499887228,None,,,,,,,,,,,,,,,,,,,,,,,,,,,,,,,,,,,,,,,,,,cxcx,001,False,2022_Apr_17_1359,EyeTrackingStudy,2021.2.3,60.03163678768951,
,,,,,,,,,,,,,,,,,,,,,,,,,,12.273153082933277,None,space,0.21205395786091685,12.273153082933277,None,,,,,,,,,,,,,,,,,,,,,,,,,,,,,,,,,,,,cxcx,001,False,2022_Apr_17_1359,EyeTrackingStudy,2021.2.3,60.03163678768951,
0,0,0,0,0,0,0,0,,,,,,,,,,,,,,,,,,,,,,,,,space,14.177192790899426,12.576165582984686,None,12.576165582984686,None,12.576165582984686,None,,,,,,,,,,,,,,,,,,,,,,,,,,,,cxcx,001,False,2022_Apr_17_1359,EyeTrackingStudy,2021.2.3,60.03163678768951,
0,0,0,0,1,0,1,0,,,,,,,,,,,,,,,,,,,,,,,,,space,0.5854443330317736,26.844798041973263,None,26.844798041973263,None,26.844798041973263,None,,,,,,,,,,,,,,,,,,,,,,,,,,,,cxcx,001,False,2022_Apr_17_1359,EyeTrackingStudy,2021.2.3,60.03163678768951,
0,0,0,0,,,,,,,,,,,,,,,,,,,,,,,,,,,,,,,,,,,,,-0.24666666666666667,0.0838095238095238,1,0,0,0.4582680829335004,A,0.009605117375031114,None,27.505435375031084,None,1,[0.4570701669435948],[0.4570731669664383],27.505435375031084,None,0,,,27.505435375031084,None,,,,,,,cxcx,001,False,2022_Apr_17_1359,EyeTrackingStudy,2021.2.3,60.03163678768951,
1,0,1,0,0,0,0,0,,,,,,,,,,,,,,,,,,,,,,,,,space,8.576354874996468,28.000832666875795,None,28.000832666875795,None,28.000832666875795,None,,,,,,,,,,,,,,,,,,,,,,,,,,,,cxcx,001,False,2022_Apr_17_1359,EyeTrackingStudy,2021.2.3,60.03163678768951,
1,0,1,0,1,0,1,0,,,,,,,,,,,,,,,,,,,,,,,,,space,1.6610050410963595,36.66224708291702,None,36.66224708291702,None,36.66224708291702,None,,,,,,,,,,,,,,,,,,,,,,,,,,,,cxcx,001,False,2022_Apr_17_1359,EyeTrackingStudy,2021.2.3,60.03163678768951,
1,0,1,0,,,,,,,,,,,,,,,,,,,,,,,,,,,,,,,,,,,,,-0.29428571428571426,-0.06095238095238095,1,0,0,1.9544005000498146,B,0.0037599089555442333,None,38.40573295787908,None,1,[0.4570701669435948],[0.4570731669664383],38.40573295787908,None,1,[1.9533097499515861],[1.953312624944374],38.40573295787908,None,,,,,,,cxcx,001,False,2022_Apr_17_1359,EyeTrackingStudy,2021.2.3,60.03163678768951,
2,0,2,0,0,0,0,0,,,,,,,,,,,,,,,,,,,,,,,,,space,1.0895294579677284,40.398569707991555,None,40.398569707991555,None,40.398569707991555,None,,,,,,,,,,,,,,,,,,,,,,,,,,,,cxcx,001,False,2022_Apr_17_1359,EyeTrackingStudy,2021.2.3,60.03163678768951,
2,0,2,0,1,0,1,0,,,,,,,,,,,,,,,,,,,,,,,,,space,3.4748846660368145,41.575236208038405,None,41.575236208038405,None,41.575236208038405,None,,,,,,,,,,,,,,,,,,,,,,,,,,,,cxcx,001,False,2022_Apr_17_1359,EyeTrackingStudy,2021.2.3,60.03163678768951,
2,0,2,0,,,,,,,,,,,,,,,,,,,,,,,,,,,,,,,,,,,,,-0.29428571428571426,-0.06095238095238095,1,0,0,0.5019160001538694,B,0.0016539385542273521,None,45.15803345805034,None,1,[0.4570701669435948],[0.4570731669664383],45.15803345805034,None,2,"[1.9533097499515861, 0.50072224996984]","[1.953312624944374, 0.5007246658205986]",45.15803345805034,None,,,,,,,cxcx,001,False,2022_Apr_17_1359,EyeTrackingStudy,2021.2.3,60.03163678768951,
3,0,3,0,0,0,0,0,,,,,,,,,,,,,,,,,,,,,,,,,space,1.2862811658997089,45.70173258287832,None,45.70173258287832,None,45.70173258287832,None,,,,,,,,,,,,,,,,,,,,,,,,,,,,cxcx,001,False,2022_Apr_17_1359,EyeTrackingStudy,2021.2.3,60.03163678768951,
3,0,3,0,1,0,1,0,,,,,,,,,,,,,,,,,,,,,,,,,space,0.5362984570674598,47.08191691688262,None,47.08191691688262,None,47.08191691688262,None,,,,,,,,,,,,,,,,,,,,,,,,,,,,cxcx,001,False,2022_Apr_17_1359,EyeTrackingStudy,2021.2.3,60.03163678768951,
3,0,3,0,,,,,,,,,,,,,,,,,,,,,,,,,,,,,,,,,,,,,-0.3076190476190476,-0.09619047619047619,1,0,0,0.689132499974221,B,0.0054179090075194836,None,47.704296374926344,None,1,[0.4570701669435948],[0.4570731669664383],47.704296374926344,None,3,"[1.9533097499515861, 0.50072224996984, 0.6881446249317378]","[1.953312624944374, 0.5007246658205986, 0.6881472498644143]",47.704296374926344,None,,,,,,,cxcx,001,False,2022_Apr_17_1359,EyeTrackingStudy,2021.2.3,60.03163678768951,
4,0,4,0,0,0,0,0,,,,,,,,,,,,,,,,,,,,,,,,,space,0.8370588750112802,48.43303287494928,None,48.43303287494928,None,48.43303287494928,None,,,,,,,,,,,,,,,,,,,,,,,,,,,,cxcx,001,False,2022_Apr_17_1359,EyeTrackingStudy,2021.2.3,60.03163678768951,
4,0,4,0,1,0,1,0,,,,,,,,,,,,,,,,,,,,,,,,,space,0.5005322489887476,49.35554737504572,None,49.35554737504572,None,49.35554737504572,None,,,,,,,,,,,,,,,,,,,,,,,,,,,,cxcx,001,False,2022_Apr_17_1359,EyeTrackingStudy,2021.2.3,60.03163678768951,
4,0,4,0,,,,,,,,,,,,,,,,,,,,,,,,,,,,,,,,,,,,,-0.3076190476190476,-0.09619047619047619,1,0,0,0.4149458340834826,B,0.013897366123273969,None,49.92931904201396,None,1,[0.4570701669435948],[0.4570731669664383],49.92931904201396,None,4,"[1.9533097499515861, 0.50072224996984, 0.6881446249317378, 0.41378191695548594]","[1.953312624944374, 0.5007246658205986, 0.6881472498644143, 0.41378441685810685]",49.92931904201396,None,,,,,,,cxcx,001,False,2022_Apr_17_1359,EyeTrackingStudy,2021.2.3,60.03163678768951,
5,0,5,0,0,0,0,0,,,,,,,,,,,,,,,,,,,,,,,,,space,0.6589242490008473,50.384099832968786,None,50.384099832968786,None,50.384099832968786,None,,,,,,,,,,,,,,,,,,,,,,,,,,,,cxcx,001,False,2022_Apr_17_1359,EyeTrackingStudy,2021.2.3,60.03163678768951,
5,0,5,0,1,0,1,0,,,,,,,,,,,,,,,,,,,,,,,,,space,0.4559185830876231,51.122220624936745,None,51.122220624936745,None,51.122220624936745,None,,,,,,,,,,,,,,,,,,,,,,,,,,,,cxcx,001,False,2022_Apr_17_1359,EyeTrackingStudy,2021.2.3,60.03163678768951,
5,0,5,0,,,,,,,,,,,,,,,,,,,,,,,,,,,,,,,,,,,,,-0.3076190476190476,-0.09619047619047619,1,0,0,0.2943012921605259,B,0.009271129500120878,None,51.63448654185049,None,1,[0.4570701669435948],[0.4570731669664383],51.63448654185049,None,5,"[1.9533097499515861, 0.50072224996984, 0.6881446249317378, 0.41378191695548594, 0.2931411669123918]","[1.953312624944374, 0.5007246658205986, 0.6881472498644143, 0.41378441685810685, 0.2931440419051796]",51.63448654185049,None,,,,,,,cxcx,001,False,2022_Apr_17_1359,EyeTrackingStudy,2021.2.3,60.03163678768951,
6,0,6,0,0,0,0,0,,,,,,,,,,,,,,,,,,,,,,,,,space,6.302716374164447,51.966408541891724,None,51.966408541891724,None,51.966408541891724,None,,,,,,,,,,,,,,,,,,,,,,,,,,,,cxcx,001,False,2022_Apr_17_1359,EyeTrackingStudy,2021.2.3,60.03163678768951,
6,0,6,0,1,0,1,0,,,,,,,,,,,,,,,,,,,,,,,,,space,0.27843399881385267,58.360520208021626,None,58.360520208021626,None,58.360520208021626,None,,,,,,,,,,,,,,,,,,,,,,,,,,,,cxcx,001,False,2022_Apr_17_1359,EyeTrackingStudy,2021.2.3,60.03163678768951,
6,0,6,0,,,,,,,,,,,,,,,,,,,,,,,,,,,,,,,,,,,,,-0.3076190476190476,-0.09619047619047619,1,0,0,0.4196906671859324,B,0.0018577966839075089,None,58.70714629185386,None,1,[0.4570701669435948],[0.4570731669664383],58.70714629185386,None,6,"[1.9533097499515861, 0.50072224996984, 0.6881446249317378, 0.41378191695548594, 0.2931411669123918, 0.41865695803426206]","[1.953312624944374, 0.5007246658205986, 0.6881472498644143, 0.41378441685810685, 0.2931440419051796, 0.4186598330270499]",58.70714629185386,None,,,,,,,cxcx,001,False,2022_Apr_17_1359,EyeTrackingStudy,2021.2.3,60.03163678768951,
7,0,7,0,0,0,0,0,,,,,,,,,,,,,,,,,,,,,,,,,space,1.386578748933971,59.16859604185447,None,59.16859604185447,None,59.16859604185447,None,,,,,,,,,,,,,,,,,,,,,,,,,,,,cxcx,001,False,2022_Apr_17_1359,EyeTrackingStudy,2021.2.3,60.03163678768951,
7,0,7,0,1,0,1,0,,,,,,,,,,,,,,,,,,,,,,,,,space,0.3764117502141744,60.642504167044535,None,60.642504167044535,None,60.642504167044535,None,,,,,,,,,,,,,,,,,,,,,,,,,,,,cxcx,001,False,2022_Apr_17_1359,EyeTrackingStudy,2021.2.3,60.03163678768951,
7,0,7,0,,,,,,,,,,,,,,,,,,,,,,,,,,,,,,,,,,,,,-0.3076190476190476,-0.09619047619047619,1,0,0,0.45874933316372335,B,0.007906866958364844,None,61.102002958068624,None,1,[0.4570701669435948],[0.4570731669664383],61.102002958068624,None,7,"[1.9533097499515861, 0.50072224996984, 0.6881446249317378, 0.41378191695548594, 0.2931411669123918, 0.41865695803426206, 0.4575470839627087]","[1.953312624944374, 0.5007246658205986, 0.6881472498644143, 0.41378441685810685, 0.2931440419051796, 0.4186598330270499, 0.45754962507635355]",61.102002958068624,None,,,,,,,cxcx,001,False,2022_Apr_17_1359,EyeTrackingStudy,2021.2.3,60.03163678768951,
8,0,8,0,0,0,0,0,,,,,,,,,,,,,,,,,,,,,,,,,,,,,,,,,-0.3076190476190476,-0.09619047619047619,1,0,0,0.0004106250125914812,B,0.008561779279261827,None,61.5654124874156,None,1,[0.4570701669435948],[0.4570731669664383],61.5654124874156,None,7,"[1.9533097499515861, 0.50072224996984, 0.6881446249317378, 0.41378191695548594, 0.2931411669123918, 0.41865695803426206, 0.4575470839627087]","[1.953312624944374, 0.5007246658205986, 0.6881472498644143, 0.41378441685810685, 0.2931440419051796, 0.4186598330270499, 0.00019462499767541885]",61.5654124874156,None,,,,,,,cxcx,001,False,2022_Apr_17_1359,EyeTrackingStudy,2021.2.3,60.03163678768951,
9,0,9,0,0,0,0,0,,,,,,,,,,,,,,,,,,,,,,,,,,,,,,,,,-0.3076190476190476,-0.09619047619047619,1,0,0,0.00041129207238554955,B,0.004570946330204606,None,61.5654124874156,None,1,[0.4570701669435948],[0.4570731669664383],61.5654124874156,None,7,"[1.9533097499515861, 0.50072224996984, 0.6881446249317378, 0.41378191695548594, 0.2931411669123918, 0.41865695803426206, 0.4575470839627087]","[1.953312624944374, 0.5007246658205986, 0.6881472498644143, 0.41378441685810685, 0.2931440419051796, 0.4186598330270499, 0.00015783379785716534]",61.5654124874156,None,,,,,,,cxcx,001,False,2022_Apr_17_1359,EyeTrackingStudy,2021.2.3,60.03163678768951,
10,0,10,0,0,0,0,0,,,,,,,,,,,,,,,,,,,,,,,,,,,,,,,,,-0.3076190476190476,-0.09619047619047619,1,0,0,0.00035758293233811855,B,0.0007378202863037586,None,61.5654124874156,None,1,[0.4570701669435948],[0.4570731669664383],61.5654124874156,None,7,"[1.9533097499515861, 0.50072224996984, 0.6881446249317378, 0.41378191695548594, 0.2931411669123918, 0.41865695803426206, 0.4575470839627087]","[1.953312624944374, 0.5007246658205986, 0.6881472498644143, 0.41378441685810685, 0.2931440419051796, 0.4186598330270499, 0.00015595811419188976]",61.5654124874156,None,,,,,,,cxcx,001,False,2022_Apr_17_1359,EyeTrackingStudy,2021.2.3,60.03163678768951,
11,0,11,0,0,0,0,0,,,,,,,,,,,,,,,,,,,,,,,,,,,,,,,,,-0.3076190476190476,-0.09619047619047619,1,0,0,0.00035099987871944904,B,0.013747641816735268,None,61.582151224929845,None,1,[0.4570701669435948],[0.4570731669664383],61.582151224929845,None,7,"[1.9533097499515861, 0.50072224996984, 0.6881446249317378, 0.41378191695548594, 0.2931411669123918, 0.41865695803426206, 0.4575470839627087]","[1.953312624944374, 0.5007246658205986, 0.6881472498644143, 0.41378441685810685, 0.2931440419051796, 0.4186598330270499, 0.0001432918943464756]",61.582151224929845,None,,,,,,,cxcx,001,False,2022_Apr_17_1359,EyeTrackingStudy,2021.2.3,60.03163678768951,
12,0,12,0,0,0,0,0,,,,,,,,,,,,,,,,,,,,,,,,,,,,,,,,,-0.3076190476190476,-0.09619047619047619,1,0,0,0.0003264171537011862,B,0.010269390884786844,None,61.582151224929845,None,1,[0.4570701669435948],[0.4570731669664383],61.582151224929845,None,7,"[1.9533097499515861, 0.50072224996984, 0.6881446249317378, 0.41378191695548594, 0.2931411669123918, 0.41865695803426206, 0.4575470839627087]","[1.953312624944374, 0.5007246658205986, 0.6881472498644143, 0.41378441685810685, 0.2931440419051796, 0.4186598330270499, 0.00014283298514783382]",61.582151224929845,None,,,,,,,cxcx,001,False,2022_Apr_17_1359,EyeTrackingStudy,2021.2.3,60.03163678768951,
13,0,13,0,0,0,0,0,,,,,,,,,,,,,,,,,,,,,,,,,,,,,,,,,-0.3076190476190476,-0.09619047619047619,1,0,0,0.00033937511034309864,B,0.006791307823732495,None,61.582151224929845,None,1,[0.4570701669435948],[0.4570731669664383],61.582151224929845,None,7,"[1.9533097499515861, 0.50072224996984, 0.6881446249317378, 0.41378191695548594, 0.2931411669123918, 0.41865695803426206, 0.4575470839627087]","[1.953312624944374, 0.5007246658205986, 0.6881472498644143, 0.41378441685810685, 0.2931440419051796, 0.4186598330270499, 0.00014304113574326038]",61.582151224929845,None,,,,,,,cxcx,001,False,2022_Apr_17_1359,EyeTrackingStudy,2021.2.3,60.03163678768951,
14,0,14,0,0,0,0,0,,,,,,,,,,,,,,,,,,,,,,,,,,,,,,,,,-0.3076190476190476,-0.09619047619047619,1,0,0,0.0003258748911321163,B,0.0032940590754151344,None,61.582151224929845,None,1,[0.4570701669435948],[0.4570731669664383],61.582151224929845,None,7,"[1.9533097499515861, 0.50072224996984, 0.6881446249317378, 0.41378191695548594, 0.2931411669123918, 0.41865695803426206, 0.4575470839627087]","[1.953312624944374, 0.5007246658205986, 0.6881472498644143, 0.41378441685810685, 0.2931440419051796, 0.4186598330270499, 0.00015241606160998344]",61.582151224929845,None,,,,,,,cxcx,001,False,2022_Apr_17_1359,EyeTrackingStudy,2021.2.3,60.03163678768951,
15,0,15,0,0,0,0,0,,,,,,,,,,,,,,,,,,,,,,,,,,,,,,,,,-0.3076190476190476,-0.09619047619047619,1,0,0,0.0003137080930173397,B,0.016628711484372616,None,61.59888996244408,None,1,[0.4570701669435948],[0.4570731669664383],61.59888996244408,None,7,"[1.9533097499515861, 0.50072224996984, 0.6881446249317378, 0.41378191695548594, 0.2931411669123918, 0.41865695803426206, 0.4575470839627087]","[1.953312624944374, 0.5007246658205986, 0.6881472498644143, 0.41378441685810685, 0.2931440419051796, 0.4186598330270499, 0.00013975007459521294]",61.59888996244408,None,,,,,,,cxcx,001,False,2022_Apr_17_1359,EyeTrackingStudy,2021.2.3,60.03163678768951,
,,,,0,0,0,0,,,,,,,,,,,,,,,,,,,,,,,,,,,,,,,,,,,,,,,,,,,,,,,,,,,,,,61.63477358291857,None,space,0.8421643329784274,61.63477358291857,None,cxcx,001,False,2022_Apr_17_1359,EyeTrackingStudy,2021.2.3,60.03163678768951,
