trials.thisRepN,trials.thisTrialN,trials.thisN,trials.thisIndex,trials_2.thisRepN,trials_2.thisTrialN,trials_2.thisN,trials_2.thisIndex,Introduction.started,Introduction.stopped,EndTaskKey.keys,EndTaskKey.rt,EndTaskKey.started,EndTaskKey.stopped,instructions.started,instructions.stopped,KyeNext.keys,KyeNext.rt,KyeNext.started,KyeNext.stopped,introduction2.started,introduction2.stopped,SpaceBar.keys,SpaceBar.rt,SpaceBar.started,SpaceBar.stopped,text_start.started,text_start.stopped,srart_key.keys,srart_key.rt,srart_key.started,srart_key.stopped,key_resp2.keys,key_resp2.rt,key_resp2.started,key_resp2.stopped,image.started,image.stopped,text_2.started,text_2.stopped,mouse.x,mouse.y,mouse.leftButton,mouse.midButton,mouse.rightButton,mouse.time,mouse.clicked_name,mouse.started,mouse.stopped,A.started,A.stopped,A.numClicks,A.timesOn,A.timesOff,B.started,B.stopped,B.numClicks,B.timesOn,B.timesOff,text_3.started,text_3.stopped,text.started,text.stopped,key_resp_2.keys,key_resp_2.rt,key_resp_2.started,key_resp_2.stopped,participant,session,use_eyetracking,date,expName,psychopyVersion,frameRate,
,,,,,,,,20.414514200000667,None,space,12.961639000000105,20.414514200000667,None,,,,,,,,,,,,,,,,,,,,,,,,,,,,,,,,,,,,,,,,,,,,,,,,,,,,,,user4,001,True,2022_May_05_1312,EyeTrackingStudy,2021.2.1,None,
,,,,,,,,,,,,,,33.40600150000046,None,space,9.746143800000027,33.40600150000046,None,,,,,,,,,,,,,,,,,,,,,,,,,,,,,,,,,,,,,,,,,,,,,,,,user4,001,True,2022_May_05_1312,EyeTrackingStudy,2021.2.1,None,
,,,,,,,,,,,,,,,,,,,,43.165071700000226,None,space,19.70705420000013,43.165071700000226,None,,,,,,,,,,,,,,,,,,,,,,,,,,,,,,,,,,,,,,,,,,user4,001,True,2022_May_05_1312,EyeTrackingStudy,2021.2.1,None,
,,,,,,,,,,,,,,,,,,,,,,,,,,62.9059643999999,None,space,4.302266100000452,62.9059643999999,None,,,,,,,,,,,,,,,,,,,,,,,,,,,,,,,,,,,,user4,001,True,2022_May_05_1312,EyeTrackingStudy,2021.2.1,None,
0,0,0,0,0,0,0,0,,,,,,,,,,,,,,,,,,,,,,,,,space,30.13782480000009,69.3023591000001,None,69.3023591000001,None,69.3023591000001,None,,,,,,,,,,,,,,,,,,,,,,,,,,,,user4,001,True,2022_May_05_1312,EyeTrackingStudy,2021.2.1,None,
0,0,0,0,1,0,1,0,,,,,,,,,,,,,,,,,,,,,,,,,space,42.13861030000044,99.53348180000012,None,99.53348180000012,None,99.53348180000012,None,,,,,,,,,,,,,,,,,,,,,,,,,,,,user4,001,True,2022_May_05_1312,EyeTrackingStudy,2021.2.1,None,
0,0,0,0,,,,,,,,,,,,,,,,,,,,,,,,,,,,,,,,,,,,,0.09166666666666666,0.08703703703703704,1,0,0,5.137878999999884,A,0.014875300000312563,None,141.74794139999995,None,1,[5.137826400000449],[5.137829899999815],141.74794139999995,None,0,,,141.74794139999995,None,,,,,,,user4,001,True,2022_May_05_1312,EyeTrackingStudy,2021.2.1,None,
1,0,1,0,0,0,0,0,,,,,,,,,,,,,,,,,,,,,,,,,space,47.38311059999978,146.9369925000001,None,146.9369925000001,None,146.9369925000001,None,,,,,,,,,,,,,,,,,,,,,,,,,,,,user4,001,True,2022_May_05_1312,EyeTrackingStudy,2021.2.1,None,
1,0,1,0,1,0,1,0,,,,,,,,,,,,,,,,,,,,,,,,,space,30.434391900000264,194.3817226000001,None,194.3817226000001,None,194.3817226000001,None,,,,,,,,,,,,,,,,,,,,,,,,,,,,user4,001,True,2022_May_05_1312,EyeTrackingStudy,2021.2.1,None,
1,0,1,0,,,,,,,,,,,,,,,,,,,,,,,,,,,,,,,,,,,,,0.125,0.09351851851851851,1,0,0,3.074898900000335,A,0.012395866666338407,None,224.9027427000001,None,2,"[5.137826400000449, 3.0744847000005393]","[5.137829899999815, 3.0744882000008147]",224.9027427000001,None,0,,,224.9027427000001,None,,,,,,,user4,001,True,2022_May_05_1312,EyeTrackingStudy,2021.2.1,None,
2,0,2,0,0,0,0,0,,,,,,,,,,,,,,,,,,,,,,,,,space,21.885756599999695,228.04226610000023,None,228.04226610000023,None,228.04226610000023,None,,,,,,,,,,,,,,,,,,,,,,,,,,,,user4,001,True,2022_May_05_1312,EyeTrackingStudy,2021.2.1,None,
2,0,2,0,1,0,1,0,,,,,,,,,,,,,,,,,,,,,,,,,space,40.313829000000624,250.0142248000002,None,250.0142248000002,None,250.0142248000002,None,,,,,,,,,,,,,,,,,,,,,,,,,,,,user4,001,True,2022_May_05_1312,EyeTrackingStudy,2021.2.1,None,
2,0,2,0,,,,,,,,,,,,,,,,,,,,,,,,,,,,,,,,,,,,,-0.15555555555555556,-0.11203703703703703,1,0,0,3.7982654000006733,B,0.0027894666673091706,None,290.4089498000003,None,2,"[5.137826400000449, 3.0744847000005393]","[5.137829899999815, 3.0744882000008147]",290.4089498000003,None,1,[3.79810069999985],[3.798104499999681],290.4089498000003,None,,,,,,,user4,001,True,2022_May_05_1312,EyeTrackingStudy,2021.2.1,None,
3,0,3,0,0,0,0,0,,,,,,,,,,,,,,,,,,,,,,,,,space,48.43929190000017,294.2568519000006,None,294.2568519000006,None,294.2568519000006,None,,,,,,,,,,,,,,,,,,,,,,,,,,,,user4,001,True,2022_May_05_1312,EyeTrackingStudy,2021.2.1,None,
3,0,3,0,1,0,1,0,,,,,,,,,,,,,,,,,,,,,,,,,space,17.60725850000017,342.77680820000023,None,342.77680820000023,None,342.77680820000023,None,,,,,,,,,,,,,,,,,,,,,,,,,,,,user4,001,True,2022_May_05_1312,EyeTrackingStudy,2021.2.1,None,
3,0,3,0,,,,,,,,,,,,,,,,,,,,,,,,,,,,,,,,,,,,,-0.19166666666666668,-0.09444444444444444,1,0,0,1.2158462999996118,B,0.010024966666605906,None,360.47177790000023,None,2,"[5.137826400000449, 3.0744847000005393]","[5.137829899999815, 3.0744882000008147]",360.47177790000023,None,2,"[3.79810069999985, 1.2156832999999097]","[3.798104499999681, 1.215686900000037]",360.47177790000023,None,,,,,,,user4,001,True,2022_May_05_1312,EyeTrackingStudy,2021.2.1,None,
4,0,4,0,0,0,0,0,,,,,,,,,,,,,,,,,,,,,,,,,space,33.9370828000001,361.7349651000004,None,361.7349651000004,None,361.7349651000004,None,,,,,,,,,,,,,,,,,,,,,,,,,,,,user4,001,True,2022_May_05_1312,EyeTrackingStudy,2021.2.1,None,
4,0,4,0,1,0,1,0,,,,,,,,,,,,,,,,,,,,,,,,,space,19.423055600000225,395.7370324000003,None,395.7370324000003,None,395.7370324000003,None,,,,,,,,,,,,,,,,,,,,,,,,,,,,user4,001,True,2022_May_05_1312,EyeTrackingStudy,2021.2.1,None,
4,0,4,0,,,,,,,,,,,,,,,,,,,,,,,,,,,,,,,,,,,,,-0.1287037037037037,-0.09166666666666666,1,0,0,0.9921758999998929,B,0.009414699999979348,None,415.21079290000034,None,2,"[5.137826400000449, 3.0744847000005393]","[5.137829899999815, 3.0744882000008147]",415.21079290000034,None,3,"[3.79810069999985, 1.2156832999999097, 0.9919557999992321]","[3.798104499999681, 1.215686900000037, 0.9919591999996555]",415.21079290000034,None,,,,,,,user4,001,True,2022_May_05_1312,EyeTrackingStudy,2021.2.1,None,
5,0,5,0,0,0,0,0,,,,,,,,,,,,,,,,,,,,,,,,,space,52.42847660000007,416.2515524999999,None,416.2515524999999,None,416.2515524999999,None,,,,,,,,,,,,,,,,,,,,,,,,,,,,user4,001,True,2022_May_05_1312,EyeTrackingStudy,2021.2.1,None,
5,0,5,0,1,0,1,0,,,,,,,,,,,,,,,,,,,,,,,,,space,16.82749530000001,468.7564775999999,None,468.7564775999999,None,468.7564775999999,None,,,,,,,,,,,,,,,,,,,,,,,,,,,,user4,001,True,2022_May_05_1312,EyeTrackingStudy,2021.2.1,None,
5,0,5,0,,,,,,,,,,,,,,,,,,,,,,,,,,,,,,,,,,,,,-0.28425925925925927,0.13333333333333333,1,0,0,6.094002499999988,A,0.01485919999959151,None,485.6379158,None,3,"[5.137826400000449, 3.0744847000005393, 6.093836199999714]","[5.137829899999815, 3.0744882000008147, 6.0938396999999895]",485.6379158,None,3,"[3.79810069999985, 1.2156832999999097, 0.9919557999992321]","[3.798104499999681, 1.215686900000037, 0.9919591999996555]",485.6379158,None,,,,,,,user4,001,True,2022_May_05_1312,EyeTrackingStudy,2021.2.1,None,
6,0,6,0,0,0,0,0,,,,,,,,,,,,,,,,,,,,,,,,,space,43.1650623000005,491.77894390000074,None,491.77894390000074,None,491.77894390000074,None,,,,,,,,,,,,,,,,,,,,,,,,,,,,user4,001,True,2022_May_05_1312,EyeTrackingStudy,2021.2.1,None,
6,0,6,0,1,0,1,0,,,,,,,,,,,,,,,,,,,,,,,,,space,56.80792870000005,535.0241036000007,None,535.0241036000007,None,535.0241036000007,None,,,,,,,,,,,,,,,,,,,,,,,,,,,,user4,001,True,2022_May_05_1312,EyeTrackingStudy,2021.2.1,None,
6,0,6,0,,,,,,,,,,,,,,,,,,,,,,,,,,,,,,,,,,,,,-0.30462962962962964,-0.1037037037037037,1,0,0,13.131907699999829,B,0.0022485000008600764,None,591.8969692000001,None,3,"[5.137826400000449, 3.0744847000005393, 6.093836199999714]","[5.137829899999815, 3.0744882000008147, 6.0938396999999895]",591.8969692000001,None,4,"[3.79810069999985, 1.2156832999999097, 0.9919557999992321, 13.131747900000846]","[3.798104499999681, 1.215686900000037, 0.9919591999996555, 13.131751400000212]",591.8969692000001,None,,,,,,,user4,001,True,2022_May_05_1312,EyeTrackingStudy,2021.2.1,None,
7,0,7,0,0,0,0,0,,,,,,,,,,,,,,,,,,,,,,,,,space,52.915319499999896,605.0766147000004,None,605.0766147000004,None,605.0766147000004,None,,,,,,,,,,,,,,,,,,,,,,,,,,,,user4,001,True,2022_May_05_1312,EyeTrackingStudy,2021.2.1,None,
7,0,7,0,1,0,1,0,,,,,,,,,,,,,,,,,,,,,,,,,space,8.28032280000025,658.0636936000001,None,658.0636936000001,None,658.0636936000001,None,,,,,,,,,,,,,,,,,,,,,,,,,,,,user4,001,True,2022_May_05_1312,EyeTrackingStudy,2021.2.1,None,
7,0,7,0,,,,,,,,,,,,,,,,,,,,,,,,,,,,,,,,,,,,,-0.28888888888888886,0.1037037037037037,1,0,0,3.852668300000005,A,0.01460046666670678,None,666.4325683000006,None,4,"[5.137826400000449, 3.0744847000005393, 6.093836199999714, 3.852483700000448]","[5.137829899999815, 3.0744882000008147, 6.0938396999999895, 3.852487299999666]",666.4325683000006,None,4,"[3.79810069999985, 1.2156832999999097, 0.9919557999992321, 13.131747900000846]","[3.798104499999681, 1.215686900000037, 0.9919591999996555, 13.131751400000212]",666.4325683000006,None,,,,,,,user4,001,True,2022_May_05_1312,EyeTrackingStudy,2021.2.1,None,
8,0,8,0,0,0,0,0,,,,,,,,,,,,,,,,,,,,,,,,,,,,,,,,,-0.28888888888888886,0.1037037037037037,1,0,0,0.00023220000002766028,A,0.009063066667295061,None,670.2905227666672,None,4,"[5.137826400000449, 3.0744847000005393, 6.093836199999714, 3.852483700000448]","[5.137829899999815, 3.0744882000008147, 6.0938396999999895, 0.00010280000060447492]",670.2905227666672,None,4,"[3.79810069999985, 1.2156832999999097, 0.9919557999992321, 13.131747900000846]","[3.798104499999681, 1.215686900000037, 0.9919591999996555, 13.131751400000212]",670.2905227666672,None,,,,,,,user4,001,True,2022_May_05_1312,EyeTrackingStudy,2021.2.1,None,
9,0,9,0,0,0,0,0,,,,,,,,,,,,,,,,,,,,,,,,,,,,,,,,,-0.28888888888888886,0.1037037037037037,1,0,0,0.00037060000067867804,A,0.0036084666671740706,None,670.2905227666672,None,4,"[5.137826400000449, 3.0744847000005393, 6.093836199999714, 3.852483700000448]","[5.137829899999815, 3.0744882000008147, 6.0938396999999895, 9.820000013860408e-05]",670.2905227666672,None,4,"[3.79810069999985, 1.2156832999999097, 0.9919557999992321, 13.131747900000846]","[3.798104499999681, 1.215686900000037, 0.9919591999996555, 13.131751400000212]",670.2905227666672,None,,,,,,,user4,001,True,2022_May_05_1312,EyeTrackingStudy,2021.2.1,None,
10,0,10,0,0,0,0,0,,,,,,,,,,,,,,,,,,,,,,,,,,,,,,,,,-0.28888888888888886,0.1037037037037037,1,0,0,0.00020339999991847435,A,0.015443333334587805,None,670.3071894333339,None,4,"[5.137826400000449, 3.0744847000005393, 6.093836199999714, 3.852483700000448]","[5.137829899999815, 3.0744882000008147, 6.0938396999999895, 0.00012149999929533806]",670.3071894333339,None,4,"[3.79810069999985, 1.2156832999999097, 0.9919557999992321, 13.131747900000846]","[3.798104499999681, 1.215686900000037, 0.9919591999996555, 13.131751400000212]",670.3071894333339,None,,,,,,,user4,001,True,2022_May_05_1312,EyeTrackingStudy,2021.2.1,None,
11,0,11,0,0,0,0,0,,,,,,,,,,,,,,,,,,,,,,,,,,,,,,,,,-0.28888888888888886,0.1037037037037037,1,0,0,0.00021870000000490109,A,0.009859633332780504,None,670.3071894333339,None,4,"[5.137826400000449, 3.0744847000005393, 6.093836199999714, 3.852483700000448]","[5.137829899999815, 3.0744882000008147, 6.0938396999999895, 0.00010070000007544877]",670.3071894333339,None,4,"[3.79810069999985, 1.2156832999999097, 0.9919557999992321, 13.131747900000846]","[3.798104499999681, 1.215686900000037, 0.9919591999996555, 13.131751400000212]",670.3071894333339,None,,,,,,,user4,001,True,2022_May_05_1312,EyeTrackingStudy,2021.2.1,None,
12,0,12,0,0,0,0,0,,,,,,,,,,,,,,,,,,,,,,,,,,,,,,,,,-0.28888888888888886,0.1037037037037037,1,0,0,0.000240999999732594,A,0.00450263333368639,None,670.3071894333339,None,4,"[5.137826400000449, 3.0744847000005393, 6.093836199999714, 3.852483700000448]","[5.137829899999815, 3.0744882000008147, 6.0938396999999895, 0.00016490000052726828]",670.3071894333339,None,4,"[3.79810069999985, 1.2156832999999097, 0.9919557999992321, 13.131747900000846]","[3.798104499999681, 1.215686900000037, 0.9919591999996555, 13.131751400000212]",670.3071894333339,None,,,,,,,user4,001,True,2022_May_05_1312,EyeTrackingStudy,2021.2.1,None,
13,0,13,0,0,0,0,0,,,,,,,,,,,,,,,,,,,,,,,,,,,,,,,,,-0.28888888888888886,0.1037037037037037,1,0,0,0.00020370000038383296,A,0.015836500000659726,None,670.3238561000005,None,4,"[5.137826400000449, 3.0744847000005393, 6.093836199999714, 3.852483700000448]","[5.137829899999815, 3.0744882000008147, 6.0938396999999895, 9.130000034929253e-05]",670.3238561000005,None,4,"[3.79810069999985, 1.2156832999999097, 0.9919557999992321, 13.131747900000846]","[3.798104499999681, 1.215686900000037, 0.9919591999996555, 13.131751400000212]",670.3238561000005,None,,,,,,,user4,001,True,2022_May_05_1312,EyeTrackingStudy,2021.2.1,None,
14,0,14,0,0,0,0,0,,,,,,,,,,,,,,,,,,,,,,,,,,,,,,,,,-0.28888888888888886,0.1037037037037037,1,0,0,0.00020559999938996043,A,0.01091300000098272,None,670.3238561000005,None,4,"[5.137826400000449, 3.0744847000005393, 6.093836199999714, 3.852483700000448]","[5.137829899999815, 3.0744882000008147, 6.0938396999999895, 9.219999992637895e-05]",670.3238561000005,None,4,"[3.79810069999985, 1.2156832999999097, 0.9919557999992321, 13.131747900000846]","[3.798104499999681, 1.215686900000037, 0.9919591999996555, 13.131751400000212]",670.3238561000005,None,,,,,,,user4,001,True,2022_May_05_1312,EyeTrackingStudy,2021.2.1,None,
15,0,15,0,0,0,0,0,,,,,,,,,,,,,,,,,,,,,,,,,,,,,,,,,-0.28888888888888886,0.1037037037037037,1,0,0,0.00020260000019334257,A,0.006114700000580342,None,670.3238561000005,None,4,"[5.137826400000449, 3.0744847000005393, 6.093836199999714, 3.852483700000448]","[5.137829899999815, 3.0744882000008147, 6.0938396999999895, 0.0001331999992544297]",670.3238561000005,None,4,"[3.79810069999985, 1.2156832999999097, 0.9919557999992321, 13.131747900000846]","[3.798104499999681, 1.215686900000037, 0.9919591999996555, 13.131751400000212]",670.3238561000005,None,,,,,,,user4,001,True,2022_May_05_1312,EyeTrackingStudy,2021.2.1,None,
,,,,0,0,0,0,,,,,,,,,,,,,,,,,,,,,,,,,,,,,,,,,,,,,,,,,,,,,,,,,,,,,,670.3883027000002,None,space,1.475671400000465,670.3883027000002,None,user4,001,True,2022_May_05_1312,EyeTrackingStudy,2021.2.1,None,
